timestamp,accel,accelX,accelY,accelZ,gyro,gyroX,gyroY,gyroZ,magno,magnoX,magnoY,magnoZ
519175.42736,3,0.162,9.673,1.870
519175.44682,3,-0.008,9.764,2.359
519175.46636,3,0.044,9.750,2.741
519175.48581,3,0.242,9.740,2.800
519175.50525,3,0.441,9.661,2.595
519175.52469,3,0.302,9.640,2.471
519175.54413,3,0.162,9.575,2.326,4,0.059,0.049,-0.072,5,-5.794,4.838,44.194
519175.56358,3,0.081,9.619,2.272
519175.58302,3,0.080,9.576,2.300
519175.60246,3,0.099,9.422,2.353,5,-6.113,4.650,44.288
519175.62191,3,0.382,9.263,2.420
519175.64135,3,0.508,9.335,2.322,4,-0.023,-0.015,0.073
519175.66079,3,0.308,9.433,2.131,5,-6.113,4.875,43.988
519175.68024,3,0.199,9.473,2.171,4,-0.068,0.009,0.004
519175.69968,3,0.067,9.405,2.364
519175.71912,3,0.047,9.421,2.441
519175.73857,3,0.055,9.543,2.320,5,-6.150,4.931,44.063
519175.75801,3,0.166,9.481,2.418
519175.77745,3,0.463,9.375,2.424,4,-0.113,-0.034,0.090
519175.79690,3,0.457,9.307,2.441
519175.81634,3,0.199,9.411,2.390,4,-0.098,0.101,-0.140,5,-6.094,4.913,44.156
519175.83578,3,-0.187,9.716,2.462
519175.85523,3,-0.176,9.854,2.841,5,-6.113,4.744,44.288
519175.87467,3,-0.109,9.847,3.055
519175.89411,3,0.026,9.734,3.077,4,0.148,0.032,0.013
519175.91356,3,0.203,9.584,2.866
519175.93300,3,0.251,9.625,2.620,5,-6.038,4.650,44.231
519175.95244,3,0.084,9.524,2.252,4,0.585,-0.020,-0.002
519175.97189,3,0.095,9.605,2.009
519175.99133,3,0.122,9.767,1.690
519176.01077,3,0.269,10.035,1.663
519176.03022,3,0.411,9.993,1.714,4,0.317,-0.062,0.301,5,-6.075,4.969,44.194
519176.04966,3,0.821,10.001,2.389
519176.06910,3,1.155,9.900,2.842,5,-6.056,5.269,44.025
519176.08855,3,1.274,9.819,2.489
519176.10799,3,0.960,9.704,1.819
519176.12743,3,0.287,9.374,1.172,4,0.800,-0.201,0.065,5,-5.888,5.850,43.969
519176.14688,3,-0.203,9.660,0.961
519176.16632,3,0.045,10.175,1.190
519176.18576,3,0.039,10.205,1.242,4,1.324,-0.255,-0.248
519176.20520,3,-0.157,9.899,1.166,5,-5.869,6.713,43.856
519176.22465,3,-0.423,9.782,0.711
519176.24409,3,-0.492,9.514,0.000
519176.26353,3,-0.105,9.366,-0.742,4,2.199,-0.536,0.082,5,-5.606,8.194,43.444
519176.28298,3,0.603,9.912,-1.470
519176.30242,3,1.524,10.043,-2.358
519176.32186,3,1.737,9.647,-3.172,4,2.985,-0.380,0.452
519176.34131,3,1.118,9.166,-3.214,5,-5.213,10.763,42.469
519176.36075,3,0.754,9.138,-3.071
519176.38019,3,0.831,8.506,-3.829
519176.39964,3,0.492,8.099,-4.560,4,2.592,-0.453,-0.008,5,-4.538,14.156,40.706
519176.41908,3,0.249,7.557,-5.117
519176.43852,3,0.508,7.335,-5.505
519176.45797,3,0.386,7.557,-5.443,4,2.862,-0.410,-0.476,5,-3.844,18.206,38.231
519176.47741,3,0.146,7.017,-5.634
519176.49685,3,-0.122,6.092,-6.505
519176.51630,3,-0.516,5.117,-7.526
519176.53574,3,-0.862,4.757,-7.422,4,2.955,-0.288,-0.857,5,-3.263,22.388,34.894
519176.55518,3,-0.593,4.393,-7.655
519176.57463,3,-0.492,4.083,-7.951
519176.59407,3,-0.640,3.834,-8.665,4,3.124,0.035,-0.874,5,-3.056,26.906,30.544
519176.61351,3,-0.488,2.979,-9.282
519176.63296,3,-0.201,2.394,-8.858
519176.65240,3,-0.017,1.998,-8.506
519176.67184,3,0.005,1.610,-8.978,4,3.348,0.360,-0.692,5,-3.206,31.313,24.750
519176.69129,3,0.144,0.268,-9.701
519176.71073,3,-0.304,-0.663,-9.940
519176.73017,3,0.206,-0.796,-9.634,4,3.307,0.586,-0.734,5,-3.356,35.119,17.888
519176.74962,3,0.524,-0.656,-9.415
519176.76906,3,0.668,-1.033,-9.799
519176.78850,3,0.584,-1.579,-10.083
519176.80795,3,0.368,-2.283,-9.922,4,2.586,0.364,-0.655,5,-3.788,37.913,10.163
519176.82739,3,-0.023,-2.642,-9.354
519176.84683,3,-0.482,-2.908,-9.174
519176.86628,3,-0.482,-2.832,-9.292,4,1.342,0.366,-0.536
519176.88572,3,0.152,-3.482,-10.517,5,-4.575,39.225,2.513
519176.90516,3,0.704,-4.146,-11.505
519176.92460,3,0.594,-4.194,-11.735,4,0.070,0.417,0.225
519176.94405,3,0.621,-3.627,-11.736,5,-5.513,39.675,-4.819
519176.96349,3,0.572,-2.610,-11.425
519176.98293,3,0.280,-1.835,-11.966
519177.00238,3,0.467,-1.654,-12.272,4,-2.197,0.300,0.695,5,-6.338,39.694,-10.838
519177.02182,3,0.978,-1.590,-12.389
519177.04126,3,1.216,-1.269,-12.112
519177.06071,3,0.841,0.115,-11.399
519177.08015,3,0.543,0.674,-12.338,4,-4.138,0.117,0.594,5,-6.731,39.844,-14.831
519177.09959,3,0.521,1.175,-11.885
519177.11904,3,0.278,1.828,-11.134
519177.13848,3,0.133,2.477,-10.868,4,-4.754,-0.588,0.026,5,-6.825,39.975,-16.106
519177.15792,3,0.329,3.416,-9.799
519177.17737,3,0.712,4.592,-8.567
519177.19681,3,0.854,4.958,-8.069
519177.21625,3,0.986,5.502,-7.380,4,-4.755,-0.512,0.013,5,-6.581,39.750,-14.644
519177.23570,3,1.071,6.762,-5.560
519177.25514,3,0.846,6.881,-4.167,4,-5.828,-0.259,-0.475,5,-6.375,39.094,-10.331
519177.27458,3,0.208,6.233,-3.704
519177.29403,3,-0.454,6.133,-3.190
519177.31347,3,-0.509,6.257,-1.724
519177.33291,3,-0.310,6.201,-0.593
519177.35236,3,-0.293,6.021,0.844,4,-5.857,-0.359,-0.897,5,-6.300,37.256,-3.225
519177.37180,3,-0.414,6.104,1.831
519177.39124,3,-0.940,5.459,2.496,4,-5.928,-0.127,-1.011
519177.41069,3,-1.752,4.969,3.682,5,-6.075,33.863,5.288
519177.43013,3,-2.242,4.442,4.697
519177.44957,3,-2.758,4.127,5.804
519177.46902,3,-2.187,4.592,6.590,5,-5.944,28.388,14.306
519177.48846,3,-1.693,4.115,7.823,4,-5.509,-0.530,-0.835
519177.50790,3,-1.934,3.353,9.253
519177.52735,3,-2.333,1.877,9.245,5,-5.606,20.888,22.181
519177.54679,3,-2.716,2.018,8.250,4,-4.803,-0.569,-1.035
519177.56623,3,-2.399,1.688,8.280
519177.58568,3,-2.157,0.590,8.378
519177.60512,3,-1.562,-0.413,10.003
519177.62456,3,-1.416,-2.090,12.369,4,-4.850,-0.136,-0.787,5,-5.081,11.438,27.769
519177.64401,3,-1.158,-2.419,11.490
519177.66345,3,-1.849,-3.089,9.807,5,-4.144,0.581,30.075
519177.68289,3,-2.228,-4.716,8.562,4,-4.686,-1.000,-1.195
519177.70233,3,-1.368,-6.125,8.317
519177.72178,3,-1.407,-6.107,8.827,5,-2.775,-10.200,29.063
519177.74122,3,-1.221,-6.359,9.551,4,-5.661,-0.868,-0.140
519177.76066,3,-0.692,-7.509,9.629
519177.78011,3,0.230,-8.068,7.464
519177.79955,3,1.153,-8.375,6.495,5,-1.219,-20.006,24.263
519177.81899,3,1.786,-9.069,6.237,4,-5.416,-0.472,-0.273
519177.83844,3,2.625,-8.661,5.660
519177.85788,3,2.691,-9.305,4.534,5,0.581,-27.094,15.994
519177.87732,3,1.906,-8.992,3.543
519177.89677,3,1.428,-8.308,2.152,4,-4.898,-1.763,-0.320
519177.91621,3,1.606,-8.634,0.621
519177.93565,3,2.549,-8.828,-0.322,5,1.931,-30.694,5.569
519177.95510,3,2.922,-8.928,-1.804,4,-5.395,-1.609,0.196
519177.97454,3,2.298,-9.338,-1.736
519177.99398,3,-0.420,-8.681,1.319
519178.01343,3,-2.225,-6.620,-0.115
519178.03287,3,-1.605,-6.678,-4.146,4,-4.649,-1.536,-0.545,5,2.850,-29.944,-5.719
519178.05231,3,-1.502,-6.903,-3.096
519178.07176,3,-2.209,-6.009,-1.276,5,2.831,-26.025,-16.088
519178.09120,3,-1.331,-6.827,-2.744,4,-1.811,-0.282,0.578
519178.11064,3,-0.215,-9.823,-4.916
519178.13009,3,-0.193,-12.300,-6.834
519178.14953,3,0.321,-12.526,-7.624,4,0.769,0.433,0.842,5,2.569,-20.250,-25.388
519178.16897,3,0.517,-11.741,-6.768
519178.18842,3,0.502,-11.936,-5.346
519178.20786,3,0.546,-11.917,-4.392
519178.22730,3,0.096,-11.783,-4.241,4,2.430,1.333,-0.386,5,1.950,-13.856,-32.963
519178.24675,3,-0.922,-12.112,-3.776
519178.26619,3,-1.269,-12.661,-2.003,5,1.538,-8.231,-38.831
519178.28563,3,-0.790,-11.249,0.496,4,5.178,2.281,-0.808
519178.30508,3,-0.041,-11.954,0.393
519178.32452,3,0.710,-13.596,-0.651,5,1.706,-4.763,-42.094
519178.34396,3,0.849,-13.458,-1.019,4,5.892,1.417,-0.673
519178.36341,3,0.399,-13.633,1.166
519178.38285,3,0.709,-12.472,3.941
519178.40229,3,1.877,-9.893,5.710
519178.42173,3,2.042,-5.103,5.594,4,5.544,3.045,-1.882,5,2.400,-4.181,-42.375
519178.44118,3,0.487,-1.882,5.297
519178.46062,3,0.080,-8.122,16.628,5,4.575,-6.019,-39.281
519178.48006,3,2.587,-8.843,13.106,4,6.641,2.150,0.059
519178.49951,3,3.729,-5.077,11.978
519178.51895,3,-0.573,-1.531,10.564
519178.53839,3,-4.282,0.667,9.278,4,7.966,1.130,1.310,5,7.369,-10.388,-32.925
519178.55784,3,-1.308,-1.569,16.383
519178.57728,3,2.666,-4.493,18.597
519178.59672,3,1.219,-2.642,14.565,5,10.088,-15.450,-24.244
519178.61617,3,-0.839,-4.381,8.033,4,9.712,-0.457,1.468
519178.63561,3,-0.469,-2.711,4.030
519178.65505,3,2.284,1.924,6.854,5,12.206,-18.525,-13.819
519178.67450,3,2.447,4.188,11.171
519178.69394,3,-0.677,3.310,4.772,4,9.894,2.746,-0.407
519178.71338,3,-1.474,3.997,0.869
519178.73283,3,0.041,5.084,0.909,5,13.294,-17.756,-3.394
519178.75227,3,1.707,4.329,-0.928
519178.77171,3,3.203,-0.267,-2.814,4,9.558,4.761,0.672
519178.79116,3,5.227,-1.444,-6.756
519178.81060,3,6.444,0.006,-8.595
519178.83004,3,7.300,-0.459,-9.127,4,6.499,3.661,-0.195,5,12.731,-13.369,5.250
519178.84949,3,7.126,-1.699,-10.090
519178.86893,3,5.294,-0.457,-11.234,5,11.063,-6.281,11.213
519178.88837,3,2.371,1.864,-10.471,4,3.291,1.268,-1.585
519178.90782,3,0.822,2.276,-10.666
519178.92726,3,1.117,2.037,-11.859
519178.94670,3,1.791,1.583,-11.364,4,1.844,0.249,-0.080,5,8.363,2.475,14.625
519178.96615,3,2.604,0.537,-10.901
519178.98559,3,3.455,-0.565,-12.191
519179.00503,3,3.740,-1.265,-13.032,5,4.613,12.075,15.206
519179.02448,3,3.290,-0.667,-13.286
519179.04392,3,3.225,-0.091,-14.034,4,1.075,-0.114,-0.261
519179.06336,3,4.617,0.073,-13.935,5,0.488,21.956,12.750
519179.08281,3,5.676,-0.080,-13.117
519179.10225,3,6.148,0.237,-13.303
519179.12169,3,6.074,1.296,-12.484,4,-0.468,-0.600,-0.238,5,-3.094,31.181,8.081
519179.14114,3,5.049,1.961,-11.040
519179.16058,3,3.737,1.824,-11.737
519179.18002,3,3.054,1.699,-13.571,4,-2.284,-1.971,-0.985
519179.19947,3,2.763,1.408,-14.288,5,-6.713,38.006,2.288
519179.21891,3,2.072,2.249,-12.440,4,-5.280,-3.329,-0.463
519179.23835,3,1.203,2.656,-10.475
519179.25779,3,1.411,3.124,-6.971,5,-9.581,41.138,-1.781
519179.27724,3,0.839,2.886,-5.084,4,-7.503,-3.800,-0.732
519179.29668,3,0.353,3.127,-3.835
519179.31612,3,0.844,2.853,-1.392
519179.33557,3,0.910,3.127,0.958,5,-11.231,40.369,-1.238
519179.35501,3,-0.888,3.025,2.766
519179.37445,3,-3.205,3.267,5.473
519179.39390,3,-4.040,3.704,5.502,4,-7.912,-3.712,-1.851,5,-11.756,36.188,3.375
519179.41334,3,-3.371,3.681,6.305
519179.43278,3,-2.528,3.967,5.274
519179.45223,3,-2.223,3.276,4.941,4,-5.725,-2.890,-0.887
519179.47167,3,-2.708,2.160,4.720,5,-10.631,29.831,9.525
519179.49111,3,-2.327,2.709,6.683
519179.51056,3,-1.650,1.681,7.688
519179.53000,3,-3.260,0.626,9.564,4,-6.203,-3.603,0.473
519179.54944,3,-2.139,0.601,7.984,5,-8.400,21.638,15.300
519179.56889,3,1.007,0.614,7.619
519179.58833,3,0.518,-1.807,7.841,4,-5.681,-3.466,1.568
519179.60777,3,-0.743,-3.389,7.496
519179.62722,3,-0.296,-4.064,7.957,5,-5.400,11.906,19.650
519179.64666,3,1.561,-5.098,7.926
519179.66610,3,2.527,-4.938,9.020,4,-4.820,-1.009,0.945
519179.68555,3,1.305,-5.784,9.612,5,-0.956,2.138,21.769
519179.70499,3,1.437,-7.277,6.930
519179.72443,3,1.882,-9.357,5.068,4,-4.691,-1.311,1.012
519179.74388,3,2.561,-10.316,4.708,5,2.269,-8.231,21.356
519179.76332,3,3.409,-9.968,5.960
519179.78276,3,3.200,-8.494,7.012
519179.80221,3,1.934,-7.677,7.491,4,-5.123,-0.545,0.516,5,5.475,-17.681,17.344
519179.82165,3,0.693,-7.136,5.988
519179.84109,3,0.832,-7.819,4.091
519179.86054,3,-0.012,-8.687,3.807,4,-3.768,-2.027,1.301
519179.87998,3,-1.411,-9.604,3.374,5,7.838,-24.844,9.488
519179.89942,3,-1.178,-10.443,3.233
519179.91887,3,0.095,-11.330,4.739
519179.93831,3,2.078,-13.126,5.390,4,-1.328,-0.589,1.829,5,8.869,-28.838,-0.731
519179.95775,3,2.490,-13.494,5.899
519179.97720,3,2.665,-13.788,5.612
519179.99664,3,3.030,-13.726,4.980,4,1.140,-0.220,0.839
519180.01608,3,3.205,-13.109,5.206,5,8.419,-30.731,-11.100
519180.03552,3,2.826,-12.576,6.265
519180.05497,3,1.767,-13.569,6.099
519180.07441,3,1.756,-12.901,4.544,4,4.076,-0.340,-1.627,5,6.881,-31.744,-19.763
519180.09385,3,1.097,-12.433,4.750
519180.11330,3,0.380,-13.027,4.594
519180.13274,3,1.556,-11.602,2.605,4,4.992,-1.115,-2.312
519180.15218,3,3.474,-9.245,5.412,5,5.325,-32.194,-25.013
519180.17163,3,2.246,-5.225,9.396
519180.19107,3,1.444,-1.847,9.237
519180.21051,3,0.681,-2.441,11.747,4,4.616,0.480,-2.346,5,4.219,-32.569,-27.113
519180.22996,3,0.454,-3.931,8.553
519180.24940,3,0.524,-2.644,7.594
519180.26884,3,2.826,-2.580,5.888,4,5.960,-0.040,-0.596,5,4.219,-33.019,-25.294
519180.28829,3,4.589,1.128,6.226
519180.30773,3,2.543,3.507,10.740
519180.32717,3,0.689,0.717,12.741,5,4.163,-33.394,-19.481
519180.34662,3,0.997,1.512,7.387,4,5.906,1.863,-0.642
519180.36606,3,1.018,3.311,5.870
519180.38550,3,-1.021,6.063,5.754
519180.40495,3,-2.160,6.674,7.513,4,6.063,1.832,-0.319,5,4.388,-33.375,-10.613
519180.42439,3,-2.295,4.556,7.215
519180.44383,3,-0.158,4.883,4.469
519180.46328,3,1.449,5.914,3.170
519180.48272,3,0.961,6.403,2.355,4,5.808,2.410,0.786,5,4.594,-31.969,-0.300
519180.50216,3,0.396,6.925,1.275
519180.52161,3,-0.195,8.857,2.629
519180.54105,3,0.232,8.154,3.953,4,4.860,2.736,0.786,5,4.181,-28.331,9.994
519180.56049,3,1.969,7.598,1.095
519180.57994,3,3.616,6.357,-1.168
519180.59938,3,4.382,6.652,-1.394,4,4.577,1.618,1.152
519180.61882,3,3.727,8.238,-0.523,5,3.056,-21.731,19.050
519180.63827,3,2.742,9.090,-0.413
519180.65771,3,3.340,7.689,-0.997,5,1.163,-12.713,25.200
519180.67715,3,4.286,6.292,-6.794,4,5.102,2.042,0.139
519180.69660,3,5.184,5.941,-7.829
519180.71604,3,4.555,4.665,-7.936
519180.73548,3,3.508,3.224,-11.045,5,-1.106,-2.175,28.688
519180.75493,3,2.759,3.196,-12.810,4,3.698,0.236,-0.187
519180.77437,3,2.099,4.175,-11.186
519180.79381,3,2.171,4.914,-9.549
519180.81326,3,2.176,5.355,-8.544,4,1.405,0.132,-0.289
519180.83270,3,2.333,4.763,-9.973,5,-4.631,8.494,29.063
519180.85214,3,2.635,4.406,-10.919
519180.87158,3,2.191,5.011,-10.882,5,-7.931,18.356,26.944
519180.89103,3,1.947,5.814,-10.495,4,0.591,-0.247,-0.373
519180.91047,3,1.888,6.293,-10.357
519180.92991,3,1.811,6.501,-10.492
519180.94936,3,2.075,5.996,-11.002,4,-0.385,-0.494,-0.210,5,-10.913,26.775,22.969
519180.96880,3,2.492,5.381,-12.127
519180.98824,3,2.256,5.425,-13.322,5,-13.350,33.113,18.581
519181.00769,3,1.689,6.575,-11.846
519181.02713,3,1.556,6.908,-8.917,4,-2.498,-0.927,0.122
519181.04657,3,1.860,6.046,-8.444
519181.06602,3,2.328,5.970,-9.609,5,-14.738,37.031,15.338
519181.08546,3,2.313,5.862,-8.590,4,-4.357,-1.027,0.369
519181.10490,3,2.132,6.569,-5.410
519181.12435,3,2.900,5.475,-2.876,5,-15.356,37.988,14.381
519181.14379,3,4.628,4.166,-2.332,4,-6.074,-0.855,0.013
519181.16323,3,4.241,4.145,-1.531
519181.18268,3,3.343,4.250,3.367
519181.20212,3,3.236,2.557,4.429,5,-15.488,36.450,15.844
519181.22156,3,1.684,2.909,2.719,4,-6.368,-0.917,-1.521
519181.24101,3,-2.500,5.294,6.016
519181.26045,3,-5.077,6.558,8.952
519181.27989,3,-3.001,4.721,8.413,5,-15.019,31.613,19.669
519181.29934,3,1.502,2.891,7.224,4,-6.526,-1.244,-0.874
519181.31878,3,3.340,3.096,7.957
519181.33822,3,-0.716,3.658,9.791,4,-5.371,-1.859,0.267,5,-14.100,24.244,24.019
519181.35767,3,-1.045,3.458,9.040
519181.37711,3,0.899,1.739,7.501
519181.39655,3,1.324,0.100,8.686,5,-12.600,15.113,27.731
519181.41600,3,0.487,-1.040,9.263
519181.43544,3,0.596,-1.557,8.809,4,-4.916,-1.320,0.414
519181.45488,3,1.055,-1.934,8.625
519181.47433,3,2.088,-4.433,10.553,5,-10.781,4.931,29.963
519181.49377,3,2.583,-4.983,10.362,4,-5.433,-0.957,0.272
519181.51321,3,1.804,-3.633,9.306
519181.53266,3,2.222,-4.477,8.308
519181.55210,3,1.895,-4.916,7.344,4,-4.260,-0.929,-0.074,5,-8.700,-5.831,29.550
519181.57154,3,1.327,-3.918,6.695
519181.59099,3,1.196,-3.974,7.379,5,-6.675,-16.144,26.325
519181.61043,3,0.342,-4.658,7.201
519181.62987,3,-0.078,-5.690,7.408,4,-3.693,-0.721,1.381
519181.64932,3,0.118,-6.763,6.584
519181.66876,3,0.765,-7.459,4.330,5,-5.213,-24.956,19.913
519181.68820,3,2.368,-8.735,1.986,4,-2.007,0.210,2.437
519181.70764,3,2.302,-10.458,2.020
519181.72709,3,1.734,-11.718,4.898
519181.74653,3,2.340,-11.853,7.041,4,-2.034,0.653,1.710,5,-4.781,-32.100,11.775
519181.76597,3,3.328,-11.192,8.302
519181.78542,3,2.914,-10.019,8.171
519181.80486,3,2.448,-8.780,8.759
519181.82430,3,1.254,-10.035,7.744,4,-0.202,-0.061,0.287,5,-4.144,-35.906,2.175
519181.84375,3,0.761,-10.844,6.693
519181.86319,3,0.328,-11.258,6.827
519181.88263,3,0.214,-11.637,6.791,4,2.304,0.326,-0.619,5,-4.669,-37.763,-6.900
519181.90208,3,0.533,-11.194,6.141
519181.92152,3,0.252,-9.822,6.464,5,-5.494,-38.363,-14.250
519181.94096,3,-0.395,-8.455,8.706
519181.96041,3,-0.363,-10.352,12.051
519181.97985,3,0.918,-11.220,11.444,4,3.561,0.734,-0.903
519181.99929,3,2.116,-10.952,10.249,5,-6.375,-38.700,-18.844
519182.01874,3,1.014,-8.546,8.097
519182.03818,3,-0.886,-7.017,8.504,4,5.461,0.253,-0.570
519182.05762,3,-2.255,-9.220,15.163,5,-7.256,-38.888,-19.275
519182.07707,3,-0.099,-7.606,15.818,4,6.371,0.610,-0.278
519182.09651,3,2.298,-4.885,13.905
519182.11595,3,3.801,-3.236,8.774
519182.13540,3,-0.947,-0.353,6.878,4,6.879,0.601,-0.799,5,-8.138,-38.531,-15.600
519182.15484,3,-4.603,3.128,9.968
519182.17428,3,-3.305,2.331,14.791
519182.19373,3,-1.138,3.841,12.223,5,-8.456,-37.444,-8.981
519182.21317,3,-1.295,3.134,6.389
519182.23261,3,-1.702,4.132,1.749,4,7.022,0.945,1.059
519182.25206,3,-0.626,5.102,4.225
519182.27150,3,0.370,4.196,9.135,5,-8.588,-34.500,-0.469
519182.29094,3,1.331,6.461,5.669,4,6.440,1.805,1.054
519182.31039,3,1.455,4.180,-0.244
519182.32983,3,2.240,4.146,-3.966,5,-8.981,-29.719,8.625
519182.34927,3,1.906,4.475,-0.713,4,5.275,0.817,0.115
519182.36872,3,0.980,6.185,-1.348
519182.38816,3,0.051,8.323,-1.620,5,-9.638,-22.856,16.950
519182.40760,3,0.050,6.650,-2.780
519182.42705,3,0.949,6.219,-4.303
519182.44649,3,1.810,5.249,-5.269,4,4.123,1.043,0.267
519182.46593,3,2.152,4.981,-7.874,5,-10.706,-14.269,23.250
519182.48537,3,1.790,4.962,-7.780,4,2.391,0.525,0.160
519182.50482,3,1.211,4.280,-7.487
519182.52426,3,0.630,4.943,-8.570,5,-12.075,-4.388,27.413
519182.54370,3,0.721,4.956,-9.187,4,0.487,0.238,0.303
519182.56315,3,1.904,3.660,-10.434
519182.58259,3,2.577,4.260,-10.802
519182.60203,3,2.363,6.142,-8.358,5,-13.556,6.244,29.156
519182.62148,3,2.140,7.010,-7.065,4,-0.990,-0.329,0.054
519182.64092,3,1.988,6.983,-7.831
519182.66036,3,1.198,7.444,-9.433,5,-15.094,16.069,28.781
519182.67981,3,0.136,7.817,-9.163,4,-2.179,-0.774,-0.197
519182.69925,3,-0.286,8.635,-7.734
519182.71869,3,-0.923,10.027,-3.288
519182.73814,3,-1.205,10.474,-1.313,4,-1.890,-0.598,0.274,5,-16.575,24.375,27.581
519182.75758,3,-0.821,9.970,-2.757
519182.77702,3,-0.430,9.170,-5.539
519182.79647,3,-0.097,8.930,-5.645,5,-16.856,30.094,25.781
519182.81591,3,0.319,9.767,-1.315
519182.83535,3,1.120,9.735,1.666
519182.85480,3,1.778,9.453,-0.827,4,-1.733,-0.279,0.642
519182.87424,3,2.091,8.954,-3.808
519182.89368,3,2.213,8.282,-4.538,5,-16.819,32.756,24.600
519182.91313,3,2.014,8.026,-4.378
519182.93257,3,1.565,8.876,-2.522,4,-0.851,-0.290,0.013,5,-16.388,33.150,24.450
519182.95201,3,1.113,9.695,0.246
519182.97146,3,0.755,9.746,0.628
519182.99090,3,0.756,9.508,-0.620,4,-1.289,-0.279,-0.374,5,-15.844,31.969,25.913
519183.01034,3,0.754,9.673,-1.216
519183.02979,3,0.570,9.740,-0.381
519183.04923,3,0.445,9.810,-0.127
519183.06867,3,0.348,9.720,-0.238,4,-0.885,-0.379,-0.389,5,-15.263,30.019,28.463
519183.08812,3,-0.100,9.667,-0.963
519183.10756,3,-0.673,9.971,-0.508
519183.12700,3,-0.948,10.077,0.001,4,-0.676,-0.335,-0.278,5,-14.606,27.450,31.500
519183.14645,3,-0.570,9.792,0.360
519183.16589,3,0.118,9.501,0.536
519183.18533,3,0.479,9.552,1.295
519183.20478,3,0.276,9.572,1.327,4,-0.654,-0.318,0.212,5,-13.894,24.938,34.369
519183.22422,3,0.191,9.566,0.951
519183.24366,3,0.036,9.605,0.225
519183.26311,3,-0.268,9.749,-0.122,4,-0.083,0.000,-0.142,5,-13.275,22.669,36.563
519183.28255,3,-0.178,9.982,-0.181
519183.30199,3,-0.057,9.922,-0.239
519183.32143,3,-0.197,9.933,-0.038
519183.34088,3,-0.097,9.843,-0.234,4,-0.004,-0.002,0.009,5,-12.750,20.831,38.063
519183.36032,3,0.278,9.692,-0.293
519183.37976,3,0.303,9.515,-0.229
519183.39921,3,0.005,9.623,0.036,4,-0.093,-0.050,0.186,5,-12.394,19.313,39.056
519183.41865,3,-0.263,9.816,0.703
519183.43809,3,-0.296,9.889,0.401
519183.45754,3,-0.133,9.765,0.177
519183.47698,3,0.399,9.726,-0.012,4,-0.075,-0.009,0.191,5,-12.169,17.925,39.825
519183.49642,3,0.966,9.683,-0.039
519183.51587,3,1.112,9.756,0.360
519183.53531,3,0.948,10.049,1.031,4,-0.159,0.019,0.208,5,-11.963,16.931,40.256
519183.55475,3,0.712,10.214,1.062
519183.57420,3,0.639,10.162,0.447
519183.59364,3,0.728,9.983,-0.116,4,0.035,0.020,0.015
519183.61308,3,0.868,9.943,0.086,5,-11.719,16.294,40.575
519183.63253,3,0.780,10.077,0.698
519183.65197,3,0.601,10.206,0.485
519183.67141,3,0.461,10.212,0.303,4,-0.018,0.033,-0.024,5,-11.456,16.106,40.781
519183.69086,3,0.381,10.171,0.307
519183.71030,3,0.360,9.936,0.218
519183.72974,3,0.509,9.834,0.320,5,-11.269,15.844,40.838
519183.74919,3,0.450,9.816,0.439,4,-0.011,-0.066,0.110
519183.76863,3,0.381,9.851,0.301
519183.78807,3,0.401,9.829,0.266,4,0.046,0.048,0.038
519183.80752,3,0.493,9.823,0.354,5,-11.081,15.750,40.894
519183.82696,3,0.648,9.725,0.273
519183.84640,3,0.778,9.664,0.323
519183.86585,3,0.632,9.849,0.448,5,-10.969,15.656,40.969
519183.88529,3,0.453,9.958,0.569,4,-0.008,0.047,0.009
519183.90473,3,0.376,10.003,0.353
519183.92418,3,0.384,9.960,0.340,5,-10.894,15.675,41.044
519183.94362,3,0.400,9.863,0.449,4,0.023,0.087,-0.002
519183.96306,3,0.463,9.851,0.353
519183.98251,3,0.643,9.727,0.299
519184.00195,3,1.018,9.556,0.041
519184.02139,3,1.100,9.506,-0.120,4,0.036,0.066,0.114,5,-10.931,15.769,41.044
519184.04084,3,0.904,9.639,0.031
519184.06028,3,0.512,9.948,0.347,5,-10.838,15.806,41.063
519184.07972,3,0.372,10.107,0.589,4,-0.040,0.106,-0.063
519184.09916,3,0.494,10.141,0.637
519184.11861,3,0.542,10.196,0.909
519184.13805,3,0.435,10.105,0.998,4,-0.007,0.103,0.009,5,-10.838,15.750,41.081
519184.15749,3,0.342,10.061,0.601
519184.17694,3,0.289,10.046,0.246
519184.19638,3,0.411,9.907,0.178,4,0.101,0.154,0.011,5,-10.913,15.638,40.950
519184.21582,3,0.518,9.931,0.245
519184.23527,3,0.457,10.053,0.348
519184.25471,3,0.400,10.059,0.357,5,-11.100,15.675,40.744
519184.27415,3,0.476,9.942,0.331
519184.29360,3,0.728,9.806,0.293,4,0.110,0.127,0.054
519184.31304,3,1.156,9.750,0.398
519184.33248,3,1.517,9.579,0.341,5,-11.325,15.713,40.763
519184.35193,3,1.360,9.494,0.053,4,0.109,0.085,0.150
519184.37137,3,0.905,9.792,-0.031
519184.39081,3,0.299,10.089,0.146
519184.41026,3,-0.054,10.291,0.236
519184.42970,3,-0.057,10.257,0.221,4,0.129,0.227,-0.223,5,-11.494,15.788,40.613
519184.44914,3,0.182,10.018,-0.022
519184.46859,3,0.532,9.647,-0.336
519184.48803,3,0.941,9.384,-0.285,4,0.096,0.036,0.223,5,-11.738,16.031,40.481
519184.50747,3,1.156,9.430,-0.148
519184.52692,3,1.020,9.594,-0.272
519184.54636,3,1.266,9.597,-0.098,4,0.016,0.048,0.178,5,-11.850,16.238,40.331
519184.56580,3,1.618,9.525,0.266
519184.58525,3,1.580,9.503,0.417
519184.60469,3,1.202,9.585,0.481,5,-12.131,16.631,40.200
519184.62413,3,0.976,9.710,0.049,4,0.060,0.052,-0.105
519184.64358,3,0.779,9.857,-0.138
519184.66302,3,0.569,9.883,0.024,5,-12.338,17.044,40.050
519184.68246,3,0.474,9.885,0.075,4,0.021,0.008,-0.114
519184.70191,3,0.685,9.758,0.145
519184.72135,3,0.887,9.720,0.141,5,-12.600,17.381,39.956
519184.74079,3,0.738,9.753,-0.249
519184.76024,3,0.584,9.763,-0.441,4,0.037,-0.041,0.018
519184.77968,3,0.546,9.824,-0.433
519184.79912,3,0.381,9.879,-0.339,5,-12.694,17.794,39.881
519184.81857,3,0.280,10.033,-0.262,4,-0.078,-0.077,0.060
519184.83801,3,0.432,10.033,0.124
519184.85745,3,0.613,10.048,0.328
519184.87689,3,0.709,9.997,0.412,5,-12.806,18.000,39.694
519184.89634,3,0.835,10.022,0.153,4,-0.032,-0.055,0.165
519184.91578,3,0.960,10.108,0.146
519184.93522,3,0.953,10.163,0.472
519184.95467,3,0.951,10.078,0.262,5,-12.844,18.075,39.694
519184.97411,3,0.995,9.969,-0.212,4,0.077,0.011,0.050
519184.99355,3,0.994,10.025,-0.240,5,-12.881,18.150,39.713
519185.01300,3,0.918,10.157,0.006
519185.03244,3,0.978,9.950,0.065,4,0.109,0.003,-0.000
519185.05188,3,1.092,9.708,-0.303
519185.07133,3,1.086,9.731,-0.299,5,-12.881,18.188,39.600
519185.09077,3,1.203,9.767,-0.166
519185.11021,3,1.343,9.436,0.017,4,0.078,-0.053,0.002
519185.12966,3,1.490,9.222,-0.219
519185.14910,3,1.447,9.278,-0.589,5,-12.619,18.338,39.544
519185.16854,3,1.256,9.345,-0.579,4,0.090,-0.154,-0.128
519185.18799,3,1.033,9.374,-0.491
519185.20743,3,0.728,9.527,-0.454
519185.22687,3,0.411,9.819,-0.370,5,-12.638,18.319,39.394
519185.24632,3,0.141,10.006,-0.234,4,0.035,-0.111,-0.387
519185.26576,3,0.025,9.979,-0.323,5,-12.450,18.394,39.356
519185.28520,3,0.085,9.890,-0.565,4,0.103,0.060,-0.193
519185.30465,3,0.164,9.974,-0.971
519185.32409,3,0.139,10.269,-0.728,5,-12.394,18.450,39.394
519185.34353,3,0.263,10.311,-0.203,4,0.015,0.085,0.236
519185.36298,3,0.626,10.035,0.001
519185.38242,3,1.076,9.826,-0.387
519185.40186,3,1.365,9.630,-0.886
519185.42131,3,1.469,9.576,-0.829,5,-12.356,18.675,39.394
519185.44075,3,1.278,9.724,-0.203,4,0.005,-0.091,0.274
519185.46019,3,0.973,9.896,0.032,5,-12.300,18.919,39.188
519185.47964,3,0.676,10.042,-0.246,4,0.027,-0.038,-0.125
519185.49908,3,0.559,10.194,-0.199
519185.51852,3,0.640,10.053,0.020
519185.53797,3,1.037,9.680,-0.073,4,-0.019,-0.186,-0.056,5,-12.169,18.994,39.094
519185.55741,3,1.107,9.356,-0.363
519185.57685,3,0.682,9.324,-0.572
519185.59630,3,0.196,9.618,-0.494,5,-12.075,19.200,39.244
519185.61574,3,-0.068,9.812,-0.682,4,0.048,-0.030,-0.238
519185.63518,3,-0.054,9.800,-1.027
519185.65462,3,0.219,9.726,-1.056,5,-12.225,19.200,39.319
519185.67407,3,0.633,9.552,-0.783
519185.69351,3,0.934,9.551,-0.415
519185.71295,3,0.882,9.701,-0.083,4,-0.163,-0.119,0.174
519185.73240,3,0.651,9.839,-0.154,5,-12.000,19.294,39.338
519185.75184,3,0.517,9.884,-0.108,4,-0.098,-0.045,-0.008
519185.77128,3,0.462,9.836,0.146
519185.79073,3,0.278,9.857,0.165,5,-11.850,19.125,39.469
519185.81017,3,0.102,9.981,0.047
519185.82961,3,0.130,10.068,-0.224,4,-0.057,0.013,-0.033
519185.84906,3,0.484,9.958,-0.710
519185.86850,3,0.848,9.802,-1.010,5,-11.681,19.069,39.581
519185.88794,3,1.020,9.783,-0.670,4,-0.178,-0.078,0.017
519185.90739,3,0.929,9.967,0.036
519185.92683,3,0.591,10.312,0.537,5,-11.381,18.863,39.563
519185.94627,3,0.364,10.483,0.459
519185.96572,3,0.469,10.418,-0.121
519185.98516,3,0.864,10.071,-0.634,4,0.019,0.016,-0.041
519186.00460,3,1.290,9.667,-0.407,5,-11.288,18.750,39.750
519186.02405,3,1.507,9.432,-0.112,4,-0.057,-0.120,0.043
519186.04349,3,1.408,9.427,0.157
519186.06293,3,0.986,9.563,0.366,5,-11.194,18.619,39.956
519186.08238,3,0.433,9.751,0.403
519186.10182,3,-0.100,9.989,0.212
519186.12126,3,-0.356,10.121,-0.303,4,0.025,-0.039,-0.420,5,-11.044,18.356,40.069
519186.14071,3,-0.340,9.988,-0.567
519186.16015,3,-0.193,9.707,-0.650
519186.17959,3,-0.018,9.639,-0.693
519186.19904,3,-0.011,9.916,-0.392,4,-0.008,0.005,-0.093
519186.21848,3,0.045,9.970,-0.006,5,-10.838,18.000,40.106
519186.23792,3,0.231,9.928,0.213
519186.25737,3,0.472,9.912,0.208,4,-0.100,0.036,0.071
519186.27681,3,0.599,9.888,0.185,5,-10.894,17.738,40.294
519186.29625,3,0.465,9.875,0.231
519186.31570,3,0.213,9.934,0.110
519186.33514,3,0.136,9.998,-0.121,4,0.000,0.028,-0.024
519186.35458,3,0.084,10.015,-0.108,5,-10.856,17.681,40.331
519186.37402,3,0.066,10.066,0.079
519186.39347,3,0.202,9.883,0.065,4,-0.002,0.005,0.023
519186.41291,3,0.317,9.846,-0.159
519186.43235,3,0.320,9.913,-0.213,5,-10.894,17.588,40.313
519186.45180,3,0.246,9.933,-0.206
519186.47124,3,0.234,9.865,-0.154,4,0.033,0.026,0.037,5,-11.006,17.456,40.388
519186.49068,3,0.287,9.865,-0.133
519186.51013,3,0.340,9.900,0.071
519186.52957,3,0.608,9.749,-0.001,4,0.017,0.032,0.070
519186.54901,3,0.992,9.397,-0.128,5,-11.044,17.325,40.294
519186.56846,3,0.121,9.573,-0.239
519186.58790,3,-0.603,9.730,-0.567
519186.60734,3,0.225,9.878,-0.194,4,0.027,0.013,-0.047,5,-11.063,17.344,40.181
519186.62679,3,0.861,9.709,0.006
519186.64623,3,0.254,9.863,-0.423
519186.66567,3,0.028,9.821,-0.217,4,-0.191,-0.075,0.057,5,-11.063,17.250,40.163
519186.68512,3,0.530,9.609,0.124
519186.70456,3,1.437,9.695,0.233
519186.72400,3,1.180,9.912,0.600,4,-0.134,-0.117,-0.146
519186.74345,3,0.121,10.761,0.257,5,-11.044,17.288,40.238
519186.76289,3,0.508,10.249,-0.112
519186.78233,3,0.644,10.377,0.500
519186.80178,3,-0.388,10.018,0.639,4,-0.310,-0.886,-0.082,5,-10.856,17.213,40.163
519186.82122,3,-0.820,9.846,0.487
519186.84066,3,-0.595,10.030,0.450
519186.86011,3,-0.163,9.773,0.413,4,-0.003,-1.292,-0.300
519186.87955,3,-0.049,10.267,0.380,5,-10.500,17.006,40.313
519186.89899,3,-0.551,10.655,0.039
519186.91844,3,-0.451,9.392,0.800
519186.93788,3,-0.388,8.870,2.667,4,-0.102,-2.439,-0.652,5,-9.525,16.856,40.631
519186.95732,3,-0.004,9.506,-0.165
519186.97677,3,0.444,9.734,-0.266
519186.99621,3,-0.057,9.205,1.908
519187.01565,3,-0.020,8.913,4.024,4,-1.193,-2.863,-0.024,5,-7.594,16.500,40.913
519187.03509,3,-1.392,9.173,1.363
519187.05454,3,-2.681,12.190,-1.239,4,0.038,-3.347,-0.052
519187.07398,3,-1.119,11.507,-1.758
519187.09342,3,0.456,9.157,2.072,5,-4.444,15.900,41.100
519187.11287,3,1.124,8.477,3.663
519187.13231,3,0.898,8.646,1.793
519187.15175,3,-1.326,10.454,-0.453,4,0.564,-2.784,0.046,5,-0.506,15.375,40.838
519187.17120,3,-1.421,11.092,-0.251
519187.19064,3,0.758,9.986,1.758
519187.21008,3,1.215,9.909,2.059,4,0.603,-2.913,0.009,5,4.200,15.094,39.713
519187.22953,3,1.276,10.547,1.799
519187.24897,3,0.486,9.685,0.521
519187.26841,3,0.240,9.174,-0.618,5,9.544,15.019,37.838
519187.28786,3,-0.281,9.167,0.304,4,0.729,-5.381,0.205
519187.30730,3,-0.455,9.979,1.143
519187.32674,3,-0.555,10.029,1.416,5,15.731,15.188,34.181
519187.34619,3,-2.055,10.552,0.788,4,0.879,-5.526,0.125
519187.36563,3,-2.160,10.007,-1.270
519187.38507,3,-1.024,9.933,-0.473
519187.40452,3,-0.780,10.139,0.383
519187.42396,3,-0.614,10.344,-0.169,4,0.707,-4.363,0.320,5,21.731,15.600,28.331
519187.44340,3,-0.432,9.802,-1.154
519187.46285,3,-1.837,9.651,-1.633,5,26.888,15.694,20.738
519187.48229,3,-2.754,9.513,-2.380,4,0.992,-4.554,0.263
519187.50173,3,-1.305,8.832,-4.132
519187.52118,3,-1.001,9.336,-4.443,5,30.188,16.031,11.869
519187.54062,3,-0.463,8.777,-3.701
519187.56006,3,-1.450,9.794,-1.667,4,0.314,-4.688,0.663
519187.57951,3,-2.238,9.211,-0.613
519187.59895,3,-2.510,9.810,-1.085,5,31.163,16.163,2.100
519187.61839,3,-1.847,9.568,-2.118,4,-0.163,-4.639,0.469
519187.63784,3,-1.547,10.043,-2.088
519187.65728,3,-1.638,10.037,-2.683,5,29.681,15.994,-7.819
519187.67672,3,-2.002,9.385,-3.167
519187.69617,3,-2.329,8.937,-3.959,4,0.325,-4.317,0.190
519187.71561,3,-2.678,9.397,-3.868
519187.73505,3,-3.242,9.456,-2.719,5,25.838,15.488,-17.138
519187.75449,3,-3.645,9.380,-1.160,4,-0.496,-4.767,0.215
519187.77394,3,-3.267,9.378,0.109
519187.79338,3,-2.337,9.974,1.241,5,19.856,15.169,-25.331
519187.81282,3,-0.786,9.663,2.526
519187.83227,3,0.407,9.247,1.985,4,-1.206,-3.013,1.117
519187.85171,3,1.288,8.875,1.162
519187.87115,3,1.805,9.320,0.415
519187.89060,3,1.116,9.674,0.955,4,-0.419,-2.981,0.845,5,12.150,15.019,-31.013
519187.91004,3,0.814,9.946,2.856
519187.92948,3,1.738,9.728,2.780
519187.94893,3,1.086,9.263,0.728,4,-0.632,-3.099,-0.299,5,3.581,14.981,-34.050
519187.96837,3,-2.869,8.851,0.809
519187.98781,3,-2.134,8.509,0.758,5,-5.325,15.281,-34.425
519188.00726,3,-2.274,9.029,1.633
519188.02670,3,-0.661,9.354,-0.165,4,-0.386,-2.502,0.188
519188.04614,3,0.190,10.034,2.189
519188.06559,3,1.505,9.529,1.772,5,-13.613,15.844,-32.906
519188.08503,3,1.057,9.961,2.727,4,0.067,-1.552,0.354
519188.10447,3,0.694,9.726,2.076
519188.12392,3,-0.340,9.454,2.774,5,-21.075,16.706,-29.719
519188.14336,3,-0.249,8.045,4.041
519188.16280,3,0.011,5.002,5.924,4,1.103,-3.885,-1.011
519188.18225,3,-1.766,6.406,2.557
519188.20169,3,-3.819,13.891,-8.412,5,-27.169,16.819,-24.413
519188.22113,3,-0.365,14.541,-2.083
519188.24058,3,-0.283,9.683,1.849,4,2.533,-5.461,-1.841
519188.26002,3,-2.859,11.298,0.029,5,-31.781,16.950,-17.888
519188.27946,3,-4.108,9.999,-2.006,4,1.455,-2.482,-0.816
519188.29891,3,-6.045,8.091,-1.685
519188.31835,3,-3.184,9.951,0.292
519188.33779,3,-3.067,14.830,1.168,4,0.420,-1.928,-1.155,5,-34.800,16.463,-10.950
519188.35724,3,-1.774,13.354,1.128
519188.37668,3,-1.972,11.457,-0.849
519188.39612,3,-2.018,10.295,-0.764,5,-36.881,15.469,-4.200
519188.41557,3,-1.185,8.310,-1.053,4,0.145,-2.653,1.772
519188.43501,3,-3.495,7.735,-1.069
519188.45445,3,-4.246,6.871,0.481
519188.47389,3,-3.345,8.661,0.036
519188.49334,3,-0.691,9.408,0.103,5,-37.631,14.644,2.831
519188.51278,3,-3.057,8.894,-0.686,4,-1.069,-2.097,1.444
519188.53222,3,-2.571,8.012,1.264,5,-36.881,13.819,9.413
519188.55167,3,-1.708,9.971,1.548
519188.57111,3,-1.313,10.661,2.959,4,-0.324,-2.739,1.086
519188.59055,3,-3.427,9.672,4.745,5,-35.006,13.088,15.938
519188.61000,3,-4.109,9.286,2.148
519188.62944,3,-1.937,10.680,-0.436,4,-0.427,-6.450,0.806
519188.64888,3,-0.771,10.982,-0.234
519188.66833,3,0.724,9.490,-0.795,5,-30.919,12.450,22.631
519188.68777,3,1.264,8.527,1.530
519188.70721,3,-0.752,8.985,2.585,4,-0.573,-5.563,0.220
519188.72666,3,-2.177,11.896,0.133,5,-24.413,12.469,27.844
519188.74610,3,-1.171,11.091,-0.555,4,0.085,-4.857,-0.156
519188.76554,3,-1.333,10.144,-1.669
519188.78499,3,-0.474,10.031,-0.401
519188.80443,3,-0.292,9.161,-0.744,5,-16.294,12.675,31.088
519188.82387,3,-0.409,9.275,-0.783,4,0.336,-3.200,0.221
519188.84332,3,1.687,8.710,-0.078
519188.86276,3,1.175,8.598,0.615
519188.88220,3,2.329,7.959,-1.639,5,-7.481,13.313,32.738
519188.90165,3,0.930,8.667,-1.745
519188.92109,3,-1.074,10.650,-1.126,4,1.795,-0.931,-0.392
519188.94053,3,-2.083,10.262,-1.918,5,1.519,14.606,33.225
519188.95998,3,-0.772,10.401,-0.491
519188.97942,3,-0.181,10.542,0.955,4,0.751,-1.892,-0.011
519188.99886,3,-1.280,8.764,-1.890,5,10.144,15.675,32.288
519189.01831,3,-0.718,9.084,-2.228,4,-2.321,-5.141,2.050
519189.03775,3,0.675,10.852,-0.578
519189.05719,3,-0.167,13.110,-0.934,5,18.769,15.863,29.419
519189.07664,3,0.656,12.466,-1.872,4,-2.672,-5.083,1.841
519189.09608,3,2.316,9.372,-1.359
519189.11552,3,2.532,7.491,-2.618
519189.13497,3,1.227,6.934,0.649,5,26.831,15.413,24.169
519189.15441,3,0.393,7.928,1.067,4,-2.306,-3.394,-0.566
519189.17385,3,5.946,13.921,-1.822
519189.19329,3,4.063,9.359,-2.305
519189.21274,3,-0.292,4.199,2.411
519189.23218,3,-0.061,6.359,1.916,4,2.114,-1.898,-1.405,5,32.719,15.169,17.288
519189.25162,3,3.341,12.121,1.940
519189.27107,3,0.597,11.383,1.185,5,36.094,15.131,9.806
519189.29051,3,-0.030,9.642,0.560,4,0.008,-1.494,-0.877
519189.30995,3,1.294,10.684,-3.190
519189.32940,3,0.223,10.064,-1.184,5,37.388,15.488,2.381
519189.34884,3,0.863,9.765,1.189
519189.36828,3,0.773,9.658,-0.465
519189.38773,3,0.654,9.619,3.342,4,0.310,-2.178,-0.389
519189.40717,3,1.262,10.346,5.267,5,37.519,15.544,-4.688
519189.42661,3,-1.743,11.227,1.280
519189.44606,3,-4.356,10.496,-4.241
519189.46550,3,-2.454,8.863,-6.421,4,2.022,-7.716,0.306,5,35.869,14.963,-12.319
519189.48494,3,-3.764,10.598,-5.945
519189.50439,3,-3.413,9.872,-4.169
519189.52383,3,-2.368,8.652,-3.657,4,0.880,-5.918,0.643,5,31.575,13.294,-20.213
519189.54327,3,3.444,10.134,3.861
519189.56272,3,-2.966,13.934,-1.827
519189.58216,3,-3.175,7.988,-10.856
519189.60160,3,-2.035,6.002,-7.467,4,0.397,-5.123,0.824,5,24.488,12.206,-26.475
519189.62105,3,-0.295,9.329,1.325
519189.64049,3,1.033,9.280,0.467
519189.65993,3,1.555,9.841,-0.907,4,-1.559,-2.030,0.331,5,16.275,12.056,-30.469
519189.67938,3,0.779,11.297,-1.452
519189.69882,3,-1.932,9.805,-1.945
519189.71826,3,-2.927,9.531,1.391
519189.73771,3,-2.553,8.844,2.914,4,-1.178,-1.764,-0.443,5,7.631,11.888,-32.794
519189.75715,3,-1.245,8.610,0.886
519189.77659,3,-1.660,11.076,-0.275
519189.79604,3,-0.980,12.153,0.191,4,0.822,-4.388,-0.123,5,-1.519,11.513,-33.825
519189.81548,3,-0.589,9.667,0.687
519189.83492,3,-2.072,8.337,-0.333
519189.85437,3,-2.920,9.576,-0.811
519189.87381,3,-2.642,10.295,-0.226,4,1.300,-4.377,0.588
519189.89325,3,-1.472,10.295,0.498,5,-11.006,10.650,-32.475
519189.91269,3,-1.538,9.835,-0.212
519189.93214,3,-4.674,7.056,-2.965,4,-0.053,-3.971,2.226,5,-20.213,10.238,-29.288
519189.95158,3,-3.704,7.978,-3.959
519189.97102,3,-2.623,7.310,-2.006
519189.99047,3,-3.391,9.489,-2.276
519190.00991,3,-3.926,9.232,-3.076,4,0.557,-2.094,-0.087,5,-27.656,10.425,-23.738
519190.02935,3,-2.524,10.115,-2.037
519190.04880,3,0.117,10.988,0.466
519190.06824,3,1.437,11.728,2.538,4,-0.376,-0.818,0.971
519190.08768,3,1.500,8.983,2.302,5,-32.738,11.419,-17.081
519190.10713,3,-0.036,10.330,-0.068
519190.12657,3,-1.580,9.072,0.492,5,-35.363,12.938,-9.919
519190.14601,3,-3.656,7.934,-0.208,4,-0.143,-4.842,0.158
519190.16546,3,-1.889,9.405,-1.414
519190.18490,3,-0.924,11.235,-1.319
519190.20434,3,0.693,11.992,-0.041,4,-3.233,-8.455,-0.232,5,-35.475,13.275,-0.788
519190.22379,3,-0.827,7.950,2.061
519190.24323,3,0.212,7.132,4.008
519190.26267,3,0.706,10.474,7.017
519190.28212,3,2.374,10.015,4.879,4,-2.033,-5.529,-0.046,5,-33.469,12.769,8.569
519190.30156,3,1.517,8.235,1.122
519190.32100,3,1.861,7.756,5.648
519190.34045,3,3.365,7.359,4.943,4,0.118,-4.506,-1.350,5,-28.800,11.963,17.381
519190.35989,3,-1.916,9.438,-0.316
519190.37933,3,-5.948,13.430,-0.907
519190.39878,3,-2.030,14.871,4.350,4,-0.102,-3.377,-0.608
519190.41822,3,-1.362,9.691,4.625,5,-21.619,11.588,24.338
519190.43766,3,1.745,7.105,2.340
519190.45711,3,1.807,8.206,1.997,5,-13.575,11.006,29.475
519190.47655,3,2.173,9.576,2.933,4,1.465,-1.864,0.501
519190.49599,3,2.351,10.410,2.771
519190.51544,3,1.793,9.741,1.045
519190.53488,3,-0.777,9.160,-0.077,5,-4.969,10.200,32.719
519190.55432,3,-0.756,8.841,-0.689,4,0.542,-4.565,0.276
519190.57377,3,-1.098,8.323,-1.407
519190.59321,3,0.159,9.613,-2.237
519190.61265,3,1.429,10.165,-1.996,4,-0.187,-6.185,-0.392,5,4.763,9.656,34.163
519190.63209,3,0.348,9.568,-1.317
519190.65154,3,0.368,8.717,-0.713
519190.67098,3,0.490,9.287,-0.251
519190.69042,3,0.644,9.761,1.009,4,-0.525,-4.473,-1.135,5,14.606,8.981,32.775
519190.70987,3,0.322,9.751,0.315
519190.72931,3,1.489,11.040,0.858,5,22.706,9.488,27.619
519190.74875,3,3.007,9.560,0.122,4,-0.656,-2.026,0.016
519190.76820,3,3.573,8.640,-0.019
519190.78764,3,1.772,8.355,0.583
519190.80708,3,0.873,11.442,0.120,5,29.306,10.631,21.038
519190.82653,3,-0.843,10.086,-0.122,4,0.190,-0.597,-0.755
519190.84597,3,-1.148,12.304,5.909
519190.86541,3,-0.455,13.334,6.016
519190.88486,3,-0.552,10.262,5.611,4,0.509,-4.106,0.324,5,33.769,12.469,13.819
519190.90430,3,-2.256,7.655,1.482
519190.92374,3,-2.558,6.903,-3.420
519190.94319,3,-1.896,8.337,-4.762,5,35.625,13.556,5.006
519190.96263,3,-3.083,8.996,-3.524,4,2.462,-8.502,1.238
519190.98207,3,-4.564,8.677,-1.976
519191.00152,3,-4.423,8.359,-2.908,5,34.388,13.613,-5.100
519191.02096,3,-3.194,9.184,-6.724,4,1.199,-7.992,1.476
519191.04040,3,-1.589,10.001,-8.245
519191.05985,3,-1.671,9.921,-5.662,5,29.756,12.938,-14.513
519191.07929,3,-2.553,9.871,-2.616
519191.09873,3,-2.282,9.181,-1.691,4,-0.520,-4.311,0.691
519191.11818,3,-0.755,9.319,-2.948
519191.13762,3,0.858,10.551,-2.768,4,-0.614,-4.499,0.567,5,22.481,12.225,-21.900
519191.15706,3,-0.203,11.158,-4.105
519191.17651,3,-0.280,8.936,-3.178
519191.19595,3,-1.984,8.595,-1.520
519191.21539,3,-0.670,8.664,2.108,4,-1.565,-1.136,-0.558,5,13.631,11.531,-26.438
519191.23484,3,-1.015,11.348,-0.915
519191.25428,3,0.086,10.022,0.968
519191.27372,3,-0.136,10.143,1.225,5,4.688,10.613,-29.550
519191.29317,3,-1.045,8.462,1.559,4,-0.790,-1.415,-1.244
519191.31261,3,-2.290,7.948,0.007
519191.33205,3,-3.471,11.265,0.031,5,-4.631,9.338,-31.594
519191.35150,3,-2.491,8.886,2.103
519191.37094,3,-0.275,6.903,3.688,4,0.508,-4.435,-1.129
519191.39038,3,-3.184,9.166,3.246,5,-14.494,7.369,-31.875
519191.40982,3,-5.516,11.550,2.145
519191.42927,3,-6.030,10.201,0.240,4,1.829,-5.680,-0.930
519191.44871,3,-5.184,7.722,0.071
519191.46815,3,-4.313,7.772,-0.545,5,-23.756,5.494,-28.163
519191.48760,3,-3.784,7.713,-0.202
519191.50704,3,-5.535,5.794,-0.024,4,1.061,-3.710,1.001
519191.52648,3,-6.177,8.181,-2.029,5,-30.488,4.613,-21.281
519191.54593,3,-5.016,7.740,0.056,4,-0.014,-1.332,-1.114
519191.56537,3,-5.566,8.790,0.327
519191.58481,3,-7.304,9.409,0.475
519191.60426,3,-6.730,11.058,1.583,5,-34.519,4.069,-13.969
519191.62370,3,-4.745,11.086,3.993
519191.64314,3,-4.849,9.616,3.461,4,-0.091,-0.677,-0.071
519191.66259,3,-5.280,9.457,1.813
519191.68203,3,-5.281,9.075,1.113,4,0.589,-0.848,0.314,5,-36.938,3.188,-6.900
519191.70147,3,-5.218,8.827,1.538
519191.72092,3,-5.563,9.877,1.896
519191.74036,3,-4.811,9.435,2.392,4,-0.861,-3.973,0.637,5,-38.119,2.306,-0.300
519191.75980,3,-2.849,9.343,1.327
519191.77925,3,-2.659,9.356,0.548
519191.79869,3,-2.833,8.958,0.955,5,-38.456,1.106,7.256
519191.81813,3,-2.731,8.112,3.571,4,-0.447,-2.982,0.899
519191.83758,3,-0.652,7.395,3.662
519191.85702,3,-0.335,8.033,3.202
519191.87646,3,-0.626,8.320,3.027,4,-0.135,-2.546,0.173,5,-37.481,0.356,15.019
519191.89591,3,-1.652,9.129,3.306
519191.91535,3,-1.638,9.360,4.161
519191.93479,3,-1.327,9.257,3.973,5,-34.875,0.075,21.938
519191.95424,3,-0.269,8.830,3.697
519191.97368,3,0.808,8.845,2.905,4,0.721,-2.047,0.345
519191.99312,3,0.939,8.500,1.695
519192.01257,3,0.261,9.126,0.301
519192.03201,3,0.177,9.300,-1.185,5,-31.219,0.413,27.094
519192.05145,3,0.674,9.663,-1.134,4,1.310,-1.736,0.330
519192.07090,3,1.318,9.596,-0.729,5,-27.263,1.106,30.788
519192.09034,3,1.345,9.288,0.939,4,-0.145,-0.680,0.139
519192.10978,3,0.704,9.391,2.077
519192.12923,3,0.095,9.827,3.069,5,-23.081,2.006,34.181
519192.14867,3,0.121,9.859,3.701,4,-0.522,-0.181,0.011
519192.16811,3,0.554,9.807,3.519
519192.18756,3,0.797,9.757,2.787
519192.20700,3,0.801,9.930,2.372
519192.22644,3,0.523,10.018,2.244,4,-0.062,-0.057,-0.074,5,-18.919,2.925,37.275
519192.24589,3,0.301,10.119,2.177
519192.26533,3,0.254,10.317,2.091,5,-14.925,3.600,40.219
519192.28477,3,0.485,10.237,2.145,4,0.087,-0.076,-0.185
519192.30421,3,0.567,10.046,2.067
519192.32366,3,0.443,9.889,1.907
519192.34310,3,0.399,9.702,1.823,4,0.251,0.104,-0.217,5,-11.625,4.369,41.981
519192.36254,3,0.290,9.765,1.708
519192.38199,3,0.353,9.756,1.624
519192.40143,3,0.536,9.483,1.386,5,-9.113,5.063,42.844
519192.42087,3,0.741,9.190,1.278,4,0.086,0.193,-0.234
519192.44032,3,0.016,9.525,1.653
519192.45976,3,-0.917,9.701,1.880,5,-7.481,5.719,43.144
519192.47920,3,-1.198,9.853,2.064,4,0.176,0.093,-0.036
519192.49865,3,-1.015,10.383,1.512
519192.51809,3,-0.521,10.101,0.767
519192.53753,3,-0.118,9.940,1.120,5,-6.619,6.169,43.256
519192.55698,3,0.105,9.738,1.724
519192.57642,3,0.382,9.499,1.915
519192.59586,3,0.627,9.381,2.182,4,-0.007,-0.066,0.241
519192.61531,3,0.966,9.192,2.148,5,-6.206,6.169,43.313
519192.63475,3,0.968,9.323,1.682
519192.65419,3,0.499,9.453,1.933,4,0.034,-0.038,-0.019
519192.67364,3,-0.215,9.619,2.102
519192.69308,3,-0.415,9.817,2.125,5,-6.150,6.188,43.350
519192.71252,3,-0.254,9.807,1.848
519192.73197,3,-0.080,9.802,1.672,4,0.022,0.038,-0.109,5,-6.263,6.338,43.369
519192.75141,3,0.112,9.627,1.595
519192.77085,3,0.084,9.618,1.708
519192.79030,3,0.108,9.762,1.683,4,0.073,0.002,-0.027
519192.80974,3,0.196,9.706,1.635
519192.82918,3,0.258,9.647,1.597,5,-6.356,6.413,43.144
519192.84863,3,0.151,9.716,1.750
519192.86807,3,-0.026,9.769,1.724,4,0.075,0.096,-0.066,5,-6.394,6.563,43.069
519192.88751,3,0.030,9.707,1.678
519192.90696,3,-0.018,9.678,1.695
519192.92640,3,-0.248,9.710,1.928,4,0.002,0.196,-0.090,5,-6.600,6.713,43.031
519192.94584,3,-0.413,9.636,1.998
519192.96529,3,-0.500,9.668,1.883
519192.98473,3,-0.421,9.728,1.690
519193.00417,3,-0.303,9.704,1.890,4,0.021,0.116,-0.064
519193.02362,3,-0.190,9.600,1.939,5,-6.825,6.956,43.069
519193.04306,3,-0.097,9.621,1.828
519193.06250,3,-0.197,9.777,1.663,4,0.012,-0.006,0.025,5,-7.031,7.050,42.994
519193.08195,3,-0.203,9.735,1.707
519193.10139,3,-0.093,9.738,1.734
519193.12083,3,-0.036,9.745,1.696
519193.14027,3,-0.112,9.747,1.664,4,-0.008,-0.012,0.014,5,-7.219,7.050,42.994
519193.15972,3,-0.234,9.689,1.810
519193.17916,3,-0.233,9.682,1.969
519193.19860,3,-0.243,9.686,1.918,4,-0.024,0.068,-0.023,5,-7.369,7.106,42.863
519193.21805,3,-0.221,9.686,1.793
519193.23749,3,-0.128,9.731,1.688
519193.25693,3,-0.163,9.722,1.818
519193.27638,3,-0.292,9.735,1.930,4,0.009,-0.009,-0.024,5,-7.331,7.069,42.750
519193.29582,3,-0.227,9.652,1.955
519193.31526,3,-0.085,9.532,1.955
519193.33471,3,-0.078,9.579,1.828,5,-7.463,7.238,42.788
519193.35415,3,-0.061,9.700,1.709,4,-0.019,-0.018,0.012
519193.37359,3,-0.191,9.703,1.775
519193.39304,3,-0.215,9.677,1.909,4,-0.039,0.002,0.010
519193.41248,3,-0.145,9.611,2.028,5,-7.631,7.294,42.694
519193.43192,3,-0.230,9.680,1.980
519193.45137,3,-0.208,9.665,1.924
519193.47081,3,-0.126,9.629,2.021,4,-0.027,0.033,-0.007,5,-7.669,7.256,42.694
519193.49025,3,-0.084,9.591,2.012
519193.50970,3,-0.154,9.592,1.946
519193.52914,3,-0.215,9.634,1.839,5,-7.706,7.200,42.694
519193.54858,3,-0.272,9.696,1.800,4,-0.005,0.005,-0.022
519193.56803,3,-0.375,9.779,1.833
519193.58747,3,-0.289,9.786,1.903
519193.60691,3,-0.141,9.749,1.959,4,-0.030,0.005,0.010
519193.62636,3,-0.055,9.773,1.959,5,-7.631,7.181,42.750
519193.64580,3,-0.036,9.755,2.128
519193.66524,3,-0.134,9.725,2.166,4,-0.068,-0.034,0.043,5,-7.650,7.200,42.750
519193.68469,3,-0.225,9.716,2.145
519193.70413,3,-0.205,9.700,2.081
519193.72357,3,-0.115,9.749,2.022,5,-7.688,7.163,42.844
519193.74302,3,-0.060,9.686,2.017,4,-0.017,-0.029,0.034
519193.76246,3,0.024,9.635,2.022
519193.78190,3,-0.056,9.557,2.186
519193.80135,3,-0.208,9.513,2.173,4,-0.030,-0.031,0.024
519193.82079,3,-0.171,9.495,1.968,5,-7.819,7.238,42.919
519193.84023,3,-0.121,9.639,1.860
519193.85968,3,-0.056,9.618,1.978,5,-7.800,7.088,42.938
519193.87912,3,-0.072,9.657,1.979,4,0.028,0.023,0.019
519193.89856,3,-0.024,9.668,1.903
519193.91801,3,0.023,9.744,1.885
519193.93745,3,0.042,9.685,2.066,4,-0.046,-0.019,0.020,5,-7.781,7.031,42.994
519193.95689,3,-0.145,9.800,2.259
519193.97634,3,-0.194,9.763,2.272
519193.99578,3,-0.118,9.739,2.108,4,0.031,0.034,0.001,5,-7.819,6.825,42.975
519194.01522,3,-0.004,9.646,2.018
519194.03467,3,0.020,9.603,2.070
519194.05411,3,-0.054,9.599,2.058
519194.07355,3,-0.053,9.617,1.885,5,-7.800,6.750,42.956
519194.09299,3,0.022,9.536,1.921,4,0.018,-0.030,0.008
519194.11244,3,0.057,9.593,2.046
519194.13188,3,0.012,9.698,2.067,5,-7.800,6.750,42.956
519194.15132,3,-0.033,9.795,2.021,4,0.013,-0.005,-0.002
519194.17077,3,-0.041,9.694,2.012
519194.19021,3,-0.050,9.566,2.060,5,-7.800,6.656,43.031
519194.20965,3,-0.158,9.631,2.082
519194.22910,3,-0.098,9.674,2.174,4,-0.014,0.003,-0.001
519194.24854,3,-0.066,9.708,2.130
519194.26798,3,-0.049,9.643,2.091,5,-7.688,6.750,43.031
519194.28743,3,-0.063,9.556,2.066,4,0.004,-0.023,0.000
519194.30687,3,-0.073,9.591,1.998
519194.32631,3,0.004,9.617,1.916
519194.34576,3,-0.012,9.548,1.884,5,-7.613,6.750,43.013
519194.36520,3,-0.091,9.506,1.891,4,0.016,-0.020,-0.026
519194.38464,3,-0.109,9.568,1.930
519194.40409,3,-0.081,9.728,2.000
519194.42353,3,-0.093,9.759,2.090,4,-0.005,-0.044,-0.028,5,-7.669,6.750,43.031
519194.44297,3,-0.079,9.696,2.128
519194.46242,3,-0.065,9.660,2.023,5,-7.594,6.769,42.938
519194.48186,3,-0.075,9.720,1.927,4,-0.006,-0.001,0.002
519194.50130,3,-0.127,9.764,1.888
519194.52075,3,-0.099,9.637,1.932
519194.54019,3,-0.199,9.685,1.965,5,-7.538,6.919,42.956
519194.55963,3,-0.218,9.643,1.958,4,-0.038,0.042,-0.012
519194.57908,3,-0.100,9.623,2.192
519194.59852,3,-0.140,9.708,2.335,5,-7.538,6.881,42.975
519194.61796,3,-0.191,9.726,1.898,4,-0.019,0.029,-0.001
519194.63741,3,-0.126,9.633,1.410
519194.65685,3,-0.079,9.578,1.823,5,-7.594,6.825,42.938
519194.67629,3,0.105,9.657,2.008
