timestamp,accel,accelX,accelY,accelZ,gyro,gyroX,gyroY,gyroZ,magno,magnoX,magnoY,magnoZ
518763.94904,3,-1.472,4.356,8.354
518764.01709,3,-1.446,4.140,8.310,5,2.475,45.450,-0.188
518764.08514,3,-0.663,2.617,9.104,4,-1.245,-0.482,0.627,5,3.094,45.244,1.444
518764.15319,3,-0.471,1.210,9.190,4,-0.956,-0.343,0.624,5,4.106,45.131,2.963
518764.22124,3,0.510,2.191,9.638,4,-0.605,-0.163,0.511,5,4.913,44.850,4.238
518764.28928,3,-0.176,1.793,9.881,4,-0.315,0.075,0.273,5,5.400,44.588,5.006
518764.35733,3,-0.172,1.557,9.924,4,-0.288,0.189,0.305,5,5.963,44.306,5.850
518764.42538,3,0.009,0.937,10.290,4,-0.339,0.096,0.167,5,6.450,44.025,6.656
518764.49343,3,0.269,0.932,9.409,4,-0.174,-0.303,-0.030,5,6.788,43.744,7.238
518764.56147,3,-0.427,1.506,9.502,4,-0.170,-0.063,-0.163,5,7.669,43.481,8.700
518764.62952,3,-0.184,1.102,9.859,4,-0.275,0.031,-0.061,5,8.250,43.069,9.881
518764.69757,3,0.264,0.852,9.862,4,0.086,0.101,0.132,5,8.513,42.731,10.800
518764.76562,3,-0.059,1.284,9.508,4,0.056,-0.195,-0.099,5,8.719,42.469,11.438
518764.83367,3,-0.040,1.137,9.431,4,-0.003,-0.075,-0.062,5,8.963,42.431,11.906
518764.90171,3,0.050,1.123,9.583,4,-0.247,-0.124,-0.026,5,8.963,42.413,12.188
518764.96976,3,0.498,0.779,9.864,4,-0.084,-0.267,0.106,5,8.869,42.300,12.375
518765.03781,3,0.472,0.925,10.106,4,0.146,-0.087,0.072,5,8.850,42.375,12.600
518765.10586,3,0.507,1.108,9.398,4,0.265,0.074,0.032,5,8.794,42.263,12.656
518765.17390,3,0.414,0.924,9.870,4,-0.162,0.179,0.011,5,8.981,42.263,12.713
518765.24195,3,-0.017,1.111,9.492,4,0.076,0.320,-0.014,5,9.075,42.244,12.563
518765.31000,3,-0.137,0.929,9.770,4,-0.055,0.277,0.029,5,9.113,42.244,12.525
518765.37805,3,0.096,1.360,9.868,4,-0.026,0.176,-0.232,5,8.869,42.225,12.619
518765.44610,3,0.045,1.481,9.276,4,0.495,-0.577,-0.386,5,8.756,42.206,12.581
518765.51414,3,-0.020,0.983,9.641,4,-0.017,-0.115,-0.159,5,8.663,42.506,12.356
518765.58219,3,-0.783,0.863,9.998,4,-0.428,0.847,-0.127,5,8.400,42.638,12.188
518765.65024,3,-0.721,0.772,9.610,4,-0.127,0.027,-0.110,5,8.006,42.675,12.319
518765.71829,3,-0.612,0.677,9.501,4,-0.004,-0.262,-0.051,5,7.481,42.750,12.263
518765.78634,3,0.023,0.623,9.576,4,-0.036,-0.597,0.121,5,7.088,42.788,12.394
518765.85438,3,0.211,0.755,9.208,4,-0.135,0.031,0.081,5,6.863,42.844,12.394
518765.92243,3,-0.239,0.734,10.215,4,-0.431,0.588,0.054,5,6.769,42.750,12.525
518765.99048,3,0.120,0.632,9.634,4,-0.151,-0.017,0.148,5,6.563,42.731,12.881
518766.05853,3,0.551,0.649,9.708,4,-0.022,-0.274,0.099,5,6.431,42.544,13.313
518766.12657,3,-0.239,0.627,9.550,4,-0.060,0.140,-0.030,5,6.488,42.375,13.744
518766.19462,3,-0.525,0.304,9.892,4,-0.178,0.148,-0.086,5,6.675,42.225,14.044
518766.26267,3,-0.377,0.163,10.076,4,-0.149,-0.053,-0.018,5,6.844,42.113,14.419
518766.33072,3,-0.240,0.396,9.821,4,0.024,-0.055,0.025,5,6.994,41.850,14.813
518766.39877,3,-0.427,0.421,9.511,4,0.083,-0.064,-0.021,5,6.938,41.663,15.131
518766.46681,3,-0.408,0.284,9.686,4,-0.020,0.088,0.050,5,7.163,41.400,15.563
518766.53486,3,-0.237,0.350,9.385,4,0.015,0.005,0.147
518766.60291,3,-0.120,0.339,9.820,4,-0.060,0.035,0.111,5,7.275,41.231,15.769
518766.67096,3,0.054,0.314,10.290,4,-0.104,-0.015,0.113,5,7.406,40.988,16.013
518766.73901,3,-0.090,0.444,9.788,4,0.226,-0.005,0.055
518766.80705,3,-0.388,0.491,9.585,4,0.253,0.087,-0.084,5,7.519,41.250,15.825
518766.87510,3,-0.203,0.567,9.571,4,0.076,0.075,0.046,5,7.575,41.400,15.788
518766.94315,3,0.007,0.666,9.443,4,0.069,-0.103,0.038
518767.01120,3,-0.193,0.597,9.629,4,-0.044,-0.013,-0.018,5,7.894,41.550,15.338
518767.07924,3,-0.425,0.536,9.739,4,-0.053,-0.020,-0.039,5,7.969,41.756,15.075
518767.14729,3,-0.055,0.522,10.066,4,-0.055,-0.134,-0.000,5,7.969,41.775,14.888
518767.21534,3,-0.008,0.795,9.564,4,0.182,-0.161,-0.047,5,8.044,42.000,14.588
518767.28339,3,0.092,0.656,9.679,4,-0.035,0.002,-0.001,5,8.138,41.944,14.381
518767.35144,3,-0.054,0.613,9.619,4,-0.000,0.023,-0.048,5,8.306,42.019,14.156
518767.41948,3,-0.150,0.608,9.697,4,-0.083,0.048,-0.080,5,8.400,42.019,13.988
518767.48753,3,-0.167,0.581,9.701,4,-0.057,0.041,-0.014,5,8.250,42.000,14.044
518767.55558,3,-0.222,0.542,9.753,4,-0.053,0.057,0.033,5,8.175,42.000,14.119
518767.62363,3,0.038,0.538,9.556,4,-0.006,0.014,0.065,5,8.175,41.944,14.213
518767.69168,3,-0.052,0.691,9.298,4,-0.019,0.082,-0.018,5,8.231,41.906,14.288
518767.75972,3,0.100,0.546,9.127,4,-0.159,0.240,-0.013,5,8.194,41.888,14.194
518767.82777,3,-0.323,0.832,11.219,4,-0.399,1.191,-0.368,5,8.063,41.906,14.400
518767.89582,3,-4.274,3.024,20.075,4,-0.178,2.068,-0.484,5,7.369,41.681,14.925
518767.96387,3,-8.038,4.444,29.147,4,2.623,-0.625,-0.130,5,6.413,41.738,15.113
518768.03191,3,-2.224,6.490,9.750,4,12.106,-6.251,0.649,5,5.981,42.019,12.525
518768.09996,3,-8.819,7.059,-1.691,4,14.692,-9.452,-2.815,5,3.675,39.169,6.019
518768.16801,3,-10.561,-2.189,23.442,4,8.679,-7.153,-1.596,5,-0.863,32.194,0.694
518768.23606,3,5.890,-12.590,19.288,4,8.946,-0.409,2.903,5,-6.094,24.469,-2.269
518768.30411,3,6.525,-14.759,10.144,4,9.383,2.891,1.765,5,-11.869,17.869,-3.938
518768.37215,3,15.673,-8.890,7.167,4,5.162,6.991,0.933,5,-17.719,11.963,-7.331
518768.44020,3,17.748,-13.423,-0.519,4,2.401,9.306,-5.560,5,-21.806,5.438,-13.219
518768.50825,3,21.026,-6.526,6.727,4,0.208,15.912,-10.505,5,-20.325,-2.175,-19.875
518768.57630,3,-8.323,-0.311,21.299,4,-1.713,11.943,-14.875,5,-15.319,-6.750,-20.494
518768.64435,3,3.213,8.550,27.191,4,0.985,4.386,-8.087,5,-11.288,-4.763,-13.725
518768.71239,3,2.494,8.775,35.846,4,3.258,-0.198,-4.283,5,-6.956,2.681,-8.625
518768.78044,3,-20.873,9.299,33.327,4,9.849,-5.804,-3.529,5,-2.963,11.175,-7.725
518768.84849,3,-36.812,-13.164,20.581,4,12.348,-6.055,0.323,5,0.225,17.344,-10.631
518768.91654,3,-13.848,-3.681,10.014,4,17.603,-7.841,10.209,5,2.213,19.631,-13.575
518768.98459,3,-6.173,11.710,7.612,4,11.715,-2.466,5.470,5,1.594,20.588,-13.125
518769.05263,3,6.268,12.880,11.600,4,6.533,-2.441,1.315,5,-4.875,22.425,-10.331
518769.12068,3,17.822,-4.762,10.456,4,4.826,-1.470,-0.687,5,-15.469,20.925,-9.675
518769.18873,3,20.716,-23.620,-0.201,4,2.718,4.337,-4.809,5,-23.569,15.319,-12.244
518769.25678,3,25.333,-40.482,-0.362,4,-3.140,10.780,-8.539,5,-30.525,5.400,-14.531
518769.32482,3,23.825,-26.181,-1.959,4,-4.030,13.058,-15.443,5,-29.400,-3.038,-19.706
518769.39287,3,4.818,1.506,23.923,4,-4.940,11.246,-13.119,5,-22.706,-5.869,-19.800
518769.46092,3,15.808,10.016,22.637,4,0.783,-1.963,-7.625,5,-17.288,-2.231,-14.119
518769.52897,3,1.700,-7.208,34.237,4,-0.464,-0.959,-9.029,5,-12.975,4.106,-9.525
518769.59702,3,-24.231,-30.988,42.365,4,6.528,-3.393,-8.264,5,-10.950,9.263,-6.431
518769.66506,3,-12.566,-20.020,21.660,4,19.209,-4.776,-0.680,5,-10.088,13.181,-6.094
518769.73311,3,3.710,-3.783,18.392,4,16.238,-1.365,1.418,5,-9.206,16.031,-8.194
518769.80116,3,4.375,1.408,0.126,4,9.838,2.553,-3.079,5,-10.256,18.319,-7.856
518769.86921,3,28.150,-7.091,-12.485,4,2.910,1.760,-2.739,5,-23.719,12.975,-5.063
518769.93725,3,30.913,-16.705,-17.921,4,-4.556,1.809,-5.378
518770.00530,3,23.479,-17.627,-12.589,4,-8.531,6.603,-9.842,5,-25.781,-2.325,-17.813
518770.07335,3,35.970,-11.262,-3.191,4,-6.318,6.035,-8.653,5,-19.350,-4.069,-22.988
518770.14140,3,51.511,-25.682,21.521,4,-3.659,-0.225,-7.088
518770.20945,3,50.309,-43.930,57.844,4,-3.365,-5.459,-11.096,5,-11.119,0.919,-23.644
518770.27749,3,53.317,-46.832,77.538,4,0.224,-11.579,-10.743,5,-10.913,3.844,-18.769
518770.34554,3,28.723,-37.142,74.176,4,1.016,-11.724,-8.486,5,-8.269,7.088,-11.644
518770.41359,3,17.390,-11.928,50.332,4,4.179,-13.126,-2.684,5,-2.813,12.750,-5.438
518770.48164,3,27.587,-2.212,33.764,4,0.822,-10.328,2.207,5,2.981,18.019,-0.131
518770.54969,3,21.555,-1.754,38.147,4,-3.576,-9.304,2.119,5,5.513,19.500,3.619
518770.61773,3,8.229,3.660,29.087,4,-4.110,-6.707,-0.300,5,5.475,17.944,3.844
518770.68578,3,9.989,8.093,19.770,4,-2.306,-6.138,0.812,5,5.775,14.831,1.481
518770.75383,3,10.143,9.357,12.532,4,-1.585,-4.964,1.411,5,8.625,12.263,-2.831
518770.82188,3,11.894,7.572,12.071,4,-2.173,-4.258,0.999,5,12.563,12.881,-10.050
518770.88992,3,6.330,5.583,12.691,4,-2.439,-4.318,0.261,5,12.731,15.375,-18.806
518770.95797,3,8.514,12.774,15.980,4,-2.465,-3.628,0.111,5,8.269,17.513,-25.444
518771.02602,3,-5.381,14.405,25.746,4,-1.343,-3.197,-0.759,5,1.238,20.138,-28.313
518771.09407,3,-25.469,-2.322,30.138,4,3.040,-3.647,-0.105,5,-6.506,23.269,-27.600
518771.16212,3,29.638,-25.227,14.601,4,7.659,0.971,6.328,5,-12.206,26.344,-26.494
518771.23016,3,59.182,-6.858,-5.497,4,10.162,9.391,1.004,5,-14.025,27.056,-26.794
518771.29821,3,41.285,0.053,-1.480,4,4.182,8.357,-2.508,5,-10.856,25.369,-25.931
518771.36626,3,26.318,-7.705,2.916,4,1.290,8.091,-7.173,5,-5.925,24.375,-23.100
518771.43431,3,25.387,-32.523,-14.256,4,2.915,4.910,-9.403,5,-0.919,24.544,-19.744
518771.50236,3,19.253,-21.192,-13.103,4,-0.006,5.173,-8.315,5,2.513,25.444,-16.931
518771.57040,3,35.907,-20.962,13.766,4,-1.419,-8.820,-1.945,5,4.969,26.494,-15.075
518771.63845,3,38.726,-35.773,49.212,4,-6.604,-9.021,-5.822,5,7.181,27.094,-11.513
518771.70650,3,24.414,-25.906,64.146,4,-3.754,-0.578,-9.537,5,7.238,24.694,-4.125
518771.77455,3,26.003,-18.623,58.536,4,7.135,-5.398,-9.582,5,5.306,24.019,5.981
518771.84260,3,13.069,-19.798,28.626,4,8.380,-5.457,-9.714,5,-0.000,26.213,14.625
518771.91064,3,16.141,-29.337,41.189,4,6.455,-9.731,-5.988,5,-6.694,28.088,19.650
518771.97869,3,4.707,-36.858,26.337,4,1.366,2.378,-4.712,5,-12.038,28.125,23.419
518772.04674,3,41.419,-22.407,25.303,4,-1.662,19.205,0.400,5,-16.575,26.475,24.281
518772.11479,3,58.207,2.245,20.004,4,-1.022,10.999,5.496,5,-17.438,25.331,20.944
518772.18283,3,52.416,21.582,12.866,4,-4.407,9.774,0.866,5,-14.081,25.819,16.650
518772.25088,3,47.979,23.040,30.979,4,-0.898,2.837,-3.815,5,-9.319,29.025,12.694
518772.31893,3,28.141,-7.272,43.760,4,5.328,-5.028,-8.414,5,-6.675,32.775,8.119
518772.36241,3,6.462,-34.049,54.250
518772.38185,3,2.624,-43.769,31.103,4,5.440,-2.661,-11.184,5,-7.500,34.575,2.756
518772.40130,3,8.169,-66.730,21.025
518772.42074,3,-10.510,-78.434,29.854
518772.44018,3,-24.095,-78.440,27.613,5,-10.238,32.194,-1.575
518772.45962,3,-5.809,-78.440,9.472,4,4.630,0.269,-6.933
518772.47906,3,7.879,-70.851,-7.598
518772.49851,3,14.318,-57.703,-7.583,5,-12.919,28.538,-6.938
518772.51795,3,23.178,-53.349,-3.767,4,2.197,3.828,9.017
518772.53739,3,35.923,-45.238,-4.036
518772.55683,3,62.034,-34.558,-8.437
518772.57628,3,78.391,-22.101,6.051,4,-7.160,4.136,12.989,5,-12.281,28.163,-10.819
518772.59572,3,78.440,-10.147,34.383
518772.61516,3,71.764,9.735,42.147
518772.63460,3,36.757,29.540,24.002,5,-10.256,29.438,-8.138
518772.65404,3,24.344,46.838,37.347,4,-7.940,3.124,3.696
518772.67349,3,45.932,46.231,58.572
518772.69293,3,46.678,42.664,50.021,5,-10.725,29.606,-4.388
518772.71237,3,44.377,34.616,42.073,4,-1.334,-1.179,-2.097
518772.73181,3,45.028,18.260,49.352
518772.75126,3,40.452,5.822,51.630
518772.77070,3,38.557,-0.596,41.915,5,-12.806,29.869,-3.488
518772.79014,3,33.034,-3.385,26.614,4,3.378,0.787,-8.360
518772.80958,3,26.947,-6.350,15.031
518772.82902,3,22.403,-14.946,11.390
518772.84847,3,17.028,-28.926,17.081,5,-16.219,29.006,-3.863
518772.86791,3,13.098,-49.153,28.353,4,6.853,-0.105,-8.970
518772.88735,3,6.706,-73.238,36.348
518772.90679,3,-6.153,-74.776,42.076,5,-17.906,27.131,-4.163
518772.92624,3,0.124,-71.700,43.792,4,5.977,-1.788,-5.233
518772.94568,3,3.264,-66.375,39.620
518772.96512,3,12.204,-63.332,31.290
518772.98456,3,33.165,-60.817,18.010,5,-17.963,26.325,-4.294
518773.00400,3,44.446,-58.717,2.028,4,10.375,3.685,4.075
518773.02345,3,45.039,-60.709,-14.628
518773.04289,3,42.278,-62.796,-29.616,5,-17.794,26.719,-4.706
518773.06233,3,31.030,-56.728,-46.330,4,13.067,6.771,-0.292
518773.08177,3,24.811,-42.307,-59.169
518773.10122,3,31.279,-40.309,-56.071,5,-17.738,21.750,-5.869
518773.12066,3,20.726,-45.395,-48.425,4,-0.932,9.122,1.710
518773.14010,3,12.832,-46.553,-34.754
518773.15954,3,26.069,-39.608,-29.024
518773.17898,3,46.522,-29.560,-28.084,5,-18.506,14.475,-11.213
518773.19843,3,64.277,-20.981,-13.693,4,-14.525,11.441,5.292
518773.21787,3,67.785,-17.915,4.102
518773.23731,3,69.605,-20.457,17.497,5,-16.556,11.663,-17.550
518773.25675,3,67.010,-29.622,31.899
518773.27620,3,50.367,-35.241,38.350,4,-13.497,4.619,-4.570
518773.29564,3,33.058,-34.020,33.013,5,-13.744,10.856,-19.031
518773.31508,3,24.106,-34.142,33.015
518773.33452,3,16.388,-41.930,44.649,4,-3.306,-1.686,-12.884
518773.35397,3,5.755,-49.995,60.122
518773.37341,3,-1.026,-50.211,67.165,5,-12.319,10.856,-17.325
518773.39285,3,9.511,-55.906,62.776,4,1.871,-1.644,-9.882
518773.41229,3,15.705,-59.633,42.105
518773.43173,3,17.440,-57.495,25.899,5,-11.963,11.006,-14.438
518773.45118,3,16.169,-52.613,20.215
518773.47062,3,14.582,-49.281,14.184,4,7.930,5.693,-3.594
518773.49006,3,17.017,-46.861,11.932
518773.50950,3,28.198,-50.958,7.267,5,-11.475,13.031,-14.044
518773.52895,3,35.072,-54.246,-10.483
518773.54839,3,31.312,-51.511,-26.001,4,6.368,8.154,2.277
518773.56783,3,34.886,-43.441,-36.005
518773.58727,3,36.508,-28.324,-48.532,5,-9.788,14.869,-15.638
518773.60671,3,27.379,-18.392,-49.020,4,5.393,7.630,3.251
518773.62616,3,20.859,-14.841,-42.475
518773.64560,3,20.088,-10.517,-37.410,5,-6.731,17.831,-17.269
518773.66504,3,23.975,-6.974,-34.639,4,-0.889,2.935,1.675
518773.68448,3,32.654,-6.076,-30.405
518773.70393,3,39.752,-7.263,-24.918,5,-4.631,20.513,-17.419
518773.72337,3,39.750,-10.937,-19.802
518773.74281,3,33.754,-10.833,-11.341,4,-5.447,4.413,0.687
518773.76225,3,27.937,-8.694,-3.146
518773.78169,3,21.638,-7.788,3.905,5,-5.025,20.681,-17.925
518773.80114,3,15.287,-8.001,7.184,4,-7.900,7.634,-3.826
518773.82058,3,9.910,-8.444,6.737
518773.84002,3,5.663,-8.213,5.414,5,-4.838,20.831,-19.406
518773.85946,3,3.071,-7.680,4.605
518773.87891,3,1.167,-6.529,4.369,4,-3.863,9.418,-6.047
518773.89835,3,0.451,-5.245,3.455,5,-2.119,21.413,-19.950
518773.91779,3,0.338,-4.244,1.972
518773.93723,3,-0.193,-2.696,-0.407,4,-0.461,5.338,-4.328
518773.95667,3,0.147,-1.281,-2.799
518773.97612,3,1.180,-0.772,-4.841,5,0.731,23.606,-19.631
518773.99556,3,2.906,-0.187,-2.751
518774.01500,3,5.456,0.691,3.153,4,1.500,1.283,-2.218
518774.03444,3,5.774,3.522,9.336,5,2.813,26.044,-17.325
518774.05389,3,4.409,6.937,11.408
518774.07333,3,9.401,9.931,15.696,4,1.050,-0.460,-1.761
518774.09277,3,16.467,12.300,18.638,5,2.606,28.350,-11.981
518774.11221,3,17.502,12.708,13.491
518774.13165,3,16.787,11.174,8.007
518774.15110,3,17.023,4.935,-1.202,4,2.150,-2.172,-1.850
518774.17054,3,9.365,-2.176,-12.284,5,-0.731,31.875,-5.363
518774.18998,3,-1.384,-12.769,-26.050
518774.20942,3,-10.184,-27.989,-34.228,4,-0.499,0.185,-5.294
518774.22887,3,-23.460,-45.078,-25.389
518774.24831,3,-36.806,-56.212,4.914,5,-6.863,34.500,1.181
518774.26775,3,-38.097,-54.548,22.950
518774.28719,3,-3.616,-58.099,30.081,4,-3.324,-9.256,-2.503
518774.30663,3,24.709,-55.965,43.990,5,-14.494,33.413,8.531
518774.32608,3,27.652,-45.607,61.621
518774.34552,3,34.043,-35.270,56.338
518774.36496,3,48.977,-23.339,37.458,4,-0.982,-2.383,11.896
518774.38440,3,60.839,-11.200,21.398,5,-19.800,30.806,14.138
518774.40385,3,59.432,-1.092,16.864
518774.42329,3,60.010,-0.072,11.527,4,10.405,1.030,5.761
518774.44273,3,53.165,-4.924,1.647,5,-22.650,31.106,15.788
518774.46217,3,41.387,-8.070,-16.850
518774.48161,3,29.085,-9.732,-33.777,4,10.741,3.405,-4.251
518774.50106,3,13.293,-11.725,-35.321,5,-22.200,31.238,12.375
518774.52050,3,4.570,-17.208,-33.723
518774.53994,3,0.776,-22.254,-43.240
518774.55938,3,4.145,-28.207,-52.880,4,1.096,3.546,-3.500
518774.57883,3,13.420,-30.706,-52.798,5,-21.169,30.563,7.800
518774.59827,3,25.770,-35.113,-49.093
518774.61771,3,39.605,-40.378,-37.830,4,-5.829,-4.785,-0.217
518774.63715,3,48.798,-45.572,-27.476,5,-19.950,30.581,4.444
518774.65659,3,69.768,-58.774,-25.627
518774.67604,3,78.440,-72.506,-10.426
518774.69548,3,78.440,-77.025,0.733,4,-10.187,-13.131,1.573,5,-18.206,30.919,5.813
518774.71492,3,78.440,-78.440,16.091
518774.73436,3,78.440,-69.002,41.587
518774.75381,3,74.095,-48.039,47.391,4,-13.080,-5.689,-0.787
518774.77325,3,55.423,-33.289,39.881,5,-12.938,28.706,10.763
518774.79269,3,40.257,-23.502,33.956
518774.81213,3,35.234,-18.638,32.909
518774.83157,3,34.647,-20.778,39.630,4,-4.890,0.412,-7.389,5,-6.356,26.381,13.444
518774.85102,3,28.345,-27.115,41.700
518774.87046,3,20.593,-36.454,34.700
518774.88990,3,11.185,-42.821,27.665,4,1.165,2.241,-10.933,5,-2.325,23.681,14.213
518774.90934,3,4.961,-48.795,17.437
518774.92879,3,-6.692,-61.489,5.293
518774.94823,3,-28.820,-68.821,9.500
518774.96767,3,-35.006,-70.988,11.256,4,1.132,5.304,-9.074
518774.98711,3,-27.051,-75.254,-7.428,5,-1.894,21.000,16.838
518775.00655,3,-23.402,-70.591,-18.342
518775.02600,3,-4.454,-67.379,-12.826
518775.04544,3,22.051,-61.804,5.351,4,-2.699,8.610,7.384,5,-3.656,17.419,22.613
518775.06488,3,55.364,-50.817,15.705
518775.08432,3,77.946,-39.648,26.195
518775.10377,3,78.440,-21.347,32.569,4,-6.794,1.141,13.669,5,-4.856,15.731,30.113
518775.12321,3,77.871,-8.688,36.563
518775.14265,3,54.707,3.561,44.369
518775.16209,3,30.289,8.626,44.110,4,-3.491,7.127,3.847
518775.18153,3,23.399,13.880,35.478,5,-4.706,13.294,37.500
518775.20098,3,22.287,15.601,27.927
518775.22042,3,11.791,17.748,21.200
518775.23986,3,14.574,9.098,16.496,4,2.304,3.193,0.178,5,-6.769,10.125,39.675
518775.25930,3,10.831,2.018,10.976
518775.27874,3,3.783,-1.721,6.427
518775.29819,3,-1.345,-4.164,7.314,4,1.302,2.746,-0.908,5,-12.019,11.156,37.294
518775.31763,3,-2.996,-5.125,10.480
518775.33707,3,-1.462,-5.425,9.420
518775.35651,3,-1.945,-4.234,5.582
518775.37596,3,1.116,-1.665,5.203,4,1.694,0.261,-0.209,5,-18.919,14.250,34.219
518775.39540,3,-0.425,-0.821,4.818
518775.41484,3,3.841,2.057,8.130
518775.43428,3,3.524,2.937,5.969,4,1.751,-0.852,-0.252,5,-25.481,17.250,30.938
518775.45372,3,1.846,4.090,5.232
518775.47317,3,0.062,2.896,5.757
518775.49261,3,0.392,1.958,7.217,5,-30.863,18.544,27.956
518775.51205,3,0.959,2.325,6.204,4,1.458,-0.567,-0.922
518775.53149,3,0.928,3.251,4.912
518775.55094,3,0.316,3.134,5.645
518775.57038,3,0.777,2.499,7.355,4,1.455,-0.081,-0.526,5,-32.888,19.538,25.388
518775.58982,3,2.016,2.499,8.223
518775.60926,3,1.858,3.036,3.655
518775.62870,3,0.886,4.175,5.035
518775.64815,3,1.842,4.422,6.116,4,0.930,-0.071,-0.319,5,-34.800,19.725,22.763
518775.66759,3,1.152,4.827,5.758
