timestamp,accel,accelX,accelY,accelZ,gyro,gyroX,gyroY,gyroZ,magno,magnoX,magnoY,magnoZ,ori,oriX,oriY,oriZ,lacc,laccX,laccY,laccZ,gravity,gravityX,gravityY,gravityZ
31035.87908,3,1.163,-0.294,10.601,4,0.011,-0.128,-0.004
31035.91951,3,0.885,-0.387,9.239,4,-0.017,-0.063,0.004,5,-57.844,10.313,-6.188
31035.95993,3,1.182,-0.483,9.279,4,0.168,-0.211,-0.009,5,-57.788,10.313,-6.056,81,79.997,2.399,5.467,82,-0.049,0.022,-0.515,83,0.934,-0.409,9.753
31036.00035,3,1.106,-0.284,10.877,4,-0.067,0.313,0.006,5,-57.188,10.200,-5.813,81,79.993,2.313,5.700,82,0.208,-0.089,-0.471,83,0.974,-0.394,9.750
31036.04078,3,0.847,-0.529,7.749,4,-0.062,0.080,0.000,5,-57.113,9.881,-5.588,81,79.996,2.470,5.427,82,0.178,0.137,1.123,83,0.927,-0.421,9.754
31036.08120,3,1.089,-0.277,10.731,4,-0.058,0.013,0.004,5,-56.944,9.544,-5.400,81,80.018,2.566,4.858,82,0.017,-0.092,-2.013,83,0.830,-0.438,9.762
31036.12162,3,0.830,-0.378,8.367,4,-0.005,0.036,-0.002,5,-56.756,9.469,-5.513,81,80.004,2.645,5.099,82,0.217,0.174,0.974,83,0.872,-0.451,9.757
31036.16204,3,1.077,-0.423,10.448,4,0.013,0.035,-0.001,5,-56.813,9.300,-5.588,81,80.025,2.571,4.903,82,-0.008,0.060,-1.394,83,0.838,-0.438,9.761
31036.20247,3,0.823,-0.387,8.925,4,-0.007,-0.011,-0.002,5,-56.513,9.713,-6.000,81,80.025,2.624,5.056,82,0.213,0.024,0.690,83,0.864,-0.447,9.758
31036.24289,3,1.029,-0.430,10.249,4,0.011,0.026,0.001,5,-56.344,9.788,-6.300,81,80.041,2.584,4.918,82,-0.018,0.053,-0.836,83,0.841,-0.440,9.761
31036.28331,3,0.854,-0.368,9.169,4,-0.001,0.012,-0.002,5,-56.456,9.788,-6.300,81,80.041,2.617,5.020,82,0.171,0.016,0.490,83,0.858,-0.446,9.759
31036.32374,3,0.986,-0.428,10.086,4,0.005,0.016,0.000,5,-56.944,9.844,-6.600,81,80.053,2.586,4.932,82,0.011,0.073,-0.591,83,0.843,-0.441,9.760
31036.36416,3,0.878,-0.354,9.313,4,-0.006,-0.012,0.000,5,-57.244,9.713,-6.356,81,80.052,2.607,5.005,82,0.130,0.017,0.327,83,0.856,-0.444,9.759
31036.40458,3,0.962,-0.442,9.995,4,-0.002,0.001,-0.001,5,-56.944,9.788,-6.000,81,80.066,2.583,4.943,82,0.033,0.086,-0.447,83,0.845,-0.440,9.760
31036.44500,3,0.890,-0.371,9.418,4,-0.006,-0.011,0.000,5,-56.944,9.788,-5.700,81,80.071,2.600,4.994,82,0.108,0.001,0.236,83,0.854,-0.443,9.759
31036.48543,3,0.931,-0.404,9.904,4,0.006,0.009,0.000,5,-56.756,9.881,-5.588,81,80.082,2.583,4.955,82,0.043,0.069,-0.342,83,0.847,-0.440,9.760
31036.52585,3,0.897,-0.385,9.500,4,-0.002,-0.011,0.000,5,-56.456,9.713,-5.588,81,80.086,2.591,4.993,82,0.077,0.038,0.145,83,0.854,-0.442,9.759
31036.56627,3,0.952,-0.411,9.845,4,-0.000,0.004,-0.001,5,-56.756,9.844,-5.813,81,80.096,2.578,4.971,82,0.047,0.055,-0.260,83,0.850,-0.440,9.760
31036.60670,3,0.876,-0.375,9.545,4,-0.000,-0.004,0.000,5,-56.344,9.581,-6.113,81,80.106,2.584,5.001,82,0.097,0.030,0.086,83,0.855,-0.441,9.759
31036.64712,3,1.221,-0.675,9.828,4,0.013,0.036,-0.024,5,-56.213,9.788,-5.756,81,80.113,2.573,4.977,82,0.025,0.064,-0.215,83,0.851,-0.439,9.760
31036.68754,3,0.768,-0.102,9.497,4,-0.025,0.009,0.023,5,-55.988,9.581,-5.756,81,80.116,2.600,5.015,82,0.362,-0.232,0.069,83,0.859,-0.443,9.759
31036.72797,3,0.823,-0.524,9.821,4,0.014,0.010,-0.018,5,-55.988,9.581,-5.869,81,80.122,2.574,4.993,82,-0.087,0.337,-0.262,83,0.855,-0.439,9.759
31036.76839,3,1.228,-0.442,9.504,4,-0.010,0.007,0.014,5,-55.913,9.581,-5.756,81,80.149,2.576,5.004,82,-0.034,-0.085,0.062,83,0.857,-0.439,9.759
31036.80881,3,0.517,-0.306,9.794,4,0.001,-0.009,-0.003,5,-55.988,9.469,-5.813,81,80.143,2.584,5.017,82,0.368,-0.002,-0.255,83,0.860,-0.440,9.759
31036.84923,3,1.269,-0.390,9.533,4,0.004,0.010,-0.001,5,-56.288,9.469,-5.756,81,80.160,2.558,4.973,82,-0.333,0.131,0.034,83,0.850,-0.437,9.760
31036.88966,3,0.677,-0.565,9.797,4,-0.007,-0.003,0.000,5,-56.344,9.300,-5.456,81,80.176,2.547,4.989,82,0.415,0.045,-0.227,83,0.854,-0.435,9.760
31036.93008,3,1.089,-0.205,9.564,4,0.003,0.007,0.005,5,-56.644,9.413,-5.588,81,80.184,2.579,4.975,82,-0.174,-0.126,0.037,83,0.851,-0.440,9.760
31036.97050,3,0.727,-0.450,9.737,4,0.003,0.005,-0.004,5,-57.188,9.169,-5.700,81,80.217,2.544,4.985,82,0.236,0.229,-0.196,83,0.853,-0.434,9.760
31037.01093,3,1.175,-0.569,9.624,4,0.003,0.004,-0.001,5,-57.356,9.300,-5.400,81,80.238,2.552,4.974,82,-0.124,-0.015,-0.023,83,0.851,-0.435,9.760
31037.05135,3,0.842,-0.155,9.698,4,-0.001,0.007,0.005,5,-57.113,9.244,-5.700,81,80.269,2.566,4.998,82,0.319,-0.132,-0.135,83,0.856,-0.437,9.759
31037.09177,3,0.821,-0.636,9.691,4,0.001,-0.004,-0.007,5,-57.656,9.244,-6.056,81,80.307,2.521,4.994,82,-0.014,0.276,-0.062,83,0.856,-0.430,9.760
31037.13219,3,1.158,-0.236,9.658,4,-0.000,0.004,0.002,5,-57.656,9.413,-5.869,81,80.329,2.555,4.985,82,-0.033,-0.201,-0.069,83,0.853,-0.435,9.760
31037.17262,3,0.670,-0.416,9.689,4,-0.001,0.001,-0.002,5,-57.788,9.413,-6.488,81,80.363,2.521,5.020,82,0.297,0.194,-0.101,83,0.861,-0.430,9.759
31037.21304,3,1.058,-0.519,9.720,4,0.006,0.002,-0.004,5,-58.013,9.881,-6.788,81,80.387,2.522,4.994,82,-0.186,0.014,-0.071,83,0.856,-0.430,9.760
31037.25346,3,0.945,-0.215,9.641,4,-0.005,0.003,0.006,5,-57.844,9.581,-6.188,81,80.393,2.535,5.028,82,0.195,-0.088,-0.039,83,0.863,-0.431,9.759
31037.29389,3,0.758,-0.600,9.737,4,0.002,-0.005,-0.005,5,-57.488,9.713,-6.300,81,80.407,2.502,5.027,82,0.082,0.211,-0.118,83,0.863,-0.426,9.759
31037.33431,3,1.125,-0.263,9.634,4,-0.001,0.002,0.000,5,-57.525,9.544,-5.756,81,80.411,2.538,5.014,82,-0.102,-0.169,-0.022,83,0.859,-0.431,9.759
31037.37473,3,0.758,-0.445,9.708,4,-0.001,0.003,0.001,5,-57.413,9.581,-5.400,81,80.424,2.510,5.037,82,0.260,0.163,-0.125,83,0.865,-0.426,9.759
31037.41516,3,0.957,-0.450,9.686,4,0.004,-0.006,-0.004,5,-57.356,9.844,-5.456,81,80.430,2.515,5.019,82,-0.103,-0.018,-0.051,83,0.861,-0.428,9.759
31037.45558,3,1.024,-0.308,9.662,4,-0.003,0.004,0.005,5,-57.244,9.788,-5.213,81,80.434,2.514,5.031,82,0.094,-0.023,-0.073,83,0.863,-0.427,9.759
31037.49600,3,0.735,-0.497,9.708,4,0.002,-0.002,-0.004,5,-56.756,9.581,-5.213,81,80.433,2.494,5.046,82,0.157,0.116,-0.097,83,0.867,-0.424,9.759
31037.53642,3,1.067,-0.337,9.651,4,-0.002,0.002,0.000,5,-56.869,9.413,-5.288,81,80.432,2.507,5.028,82,-0.128,-0.071,-0.051,83,0.863,-0.426,9.759
31037.57685,3,0.838,-0.428,9.682,4,-0.000,0.003,0.001,5,-56.513,9.300,-5.588,81,80.444,2.492,5.051,82,0.199,0.086,-0.108,83,0.868,-0.423,9.759
31037.61727,3,0.878,-0.399,9.708,4,0.003,-0.000,-0.005,5,-56.588,9.413,-5.700,81,80.463,2.492,5.043,82,-0.028,-0.005,-0.077,83,0.866,-0.423,9.759
31037.65769,3,1.058,-0.409,9.662,4,-0.002,0.001,0.002,5,-56.944,9.844,-6.000,81,80.477,2.483,5.046,82,0.012,0.023,-0.051,83,0.866,-0.422,9.759
31037.69812,3,0.747,-0.404,9.696,4,-0.001,-0.002,-0.001,5,-57.113,10.125,-5.869,81,80.476,2.481,5.061,82,0.188,0.012,-0.097,83,0.870,-0.421,9.759
31037.73854,3,1.032,-0.404,9.670,4,-0.001,-0.002,-0.002,5,-57.188,10.500,-5.756,81,80.460,2.479,5.047,82,-0.120,0.017,-0.063,83,0.867,-0.421,9.759
31037.77896,3,0.921,-0.402,9.672,4,0.001,0.005,0.001,5,-57.188,10.388,-5.756,81,80.424,2.476,5.067,82,0.161,0.016,-0.089,83,0.871,-0.420,9.759
31037.81938,3,0.818,-0.361,9.689,4,-0.000,-0.002,-0.003,5,-57.056,10.013,-5.756,81,80.391,2.472,5.067,82,0.050,0.017,-0.087,83,0.871,-0.419,9.759
31037.85981,3,1.077,-0.440,9.677,4,-0.000,0.003,0.002,5,-56.756,9.713,-5.813,81,80.376,2.462,5.063,82,-0.052,0.057,-0.070,83,0.870,-0.418,9.759
31037.90023,3,0.785,-0.349,9.682,4,-0.000,-0.000,0.001,5,-56.588,9.469,-5.756,81,80.375,2.462,5.082,82,0.203,-0.023,-0.082,83,0.874,-0.417,9.759
31037.94065,3,0.967,-0.435,9.686,4,0.001,-0.000,-0.001,5,-56.513,9.300,-5.700,81,80.385,2.451,5.069,82,-0.086,0.067,-0.077,83,0.871,-0.416,9.759
31037.98108,3,0.979,-0.402,9.670,4,0.002,0.002,-0.001,5,-56.344,9.413,-6.000,81,80.401,2.452,5.082,82,0.093,-0.019,-0.073,83,0.874,-0.416,9.759
31038.02150,3,0.806,-0.387,9.684,4,-0.000,-0.000,0.001,5,-56.644,9.469,-5.756,81,80.414,2.446,5.088,82,0.104,0.012,-0.089,83,0.875,-0.414,9.759
31038.06192,3,1.034,-0.418,9.667,4,0.002,0.002,-0.002,5,-56.944,9.413,-6.056,81,80.422,2.438,5.075,82,-0.066,0.026,-0.075,83,0.872,-0.413,9.759
31038.10235,3,0.861,-0.380,9.672,4,-0.001,0.001,-0.001,5,-57.113,9.581,-6.188,81,80.437,2.433,5.090,82,0.159,-0.006,-0.092,83,0.875,-0.412,9.759
31038.14277,3,0.921,-0.402,9.679,4,-0.001,-0.000,-0.002,5,-57.188,9.788,-5.513,81,80.447,2.429,5.083,82,-0.013,0.031,-0.087,83,0.874,-0.411,9.759
31038.18319,3,1.010,-0.390,9.662,4,-0.000,0.001,-0.001,5,-56.869,9.788,-5.869,81,80.447,2.425,5.090,82,0.046,0.009,-0.080,83,0.875,-0.411,9.759
31038.22361,3,0.809,-0.414,9.696,4,0.001,0.002,0.002,5,-56.756,9.881,-6.000,81,80.439,2.420,5.103,82,0.132,0.020,-0.097,83,0.878,-0.410,9.759
31038.26404,3,1.005,-0.373,9.660,4,-0.000,0.002,0.000,5,-56.813,9.881,-5.456,81,80.430,2.422,5.092,82,-0.066,-0.004,-0.063,83,0.875,-0.410,9.759
31038.30446,3,0.885,-0.435,9.686,4,0.001,0.001,0.001,5,-57.056,9.788,-5.813,81,80.424,2.411,5.103,82,0.127,0.035,-0.099,83,0.878,-0.408,9.759
31038.34488,3,0.871,-0.375,9.667,4,0.002,-0.002,0.000,5,-57.356,9.713,-5.456,81,80.421,2.416,5.098,82,0.009,-0.026,-0.073,83,0.876,-0.409,9.759
31038.38531,3,1.005,-0.416,9.674,4,0.001,0.004,0.000,5,-57.413,9.713,-5.456,81,80.421,2.408,5.100,82,-0.006,0.033,-0.092,83,0.877,-0.408,9.759
31038.42573,3,0.845,-0.409,9.691,4,0.002,0.001,0.001,5,-57.413,9.713,-5.513,81,80.421,2.406,5.111,82,0.126,-0.009,-0.085,83,0.879,-0.407,9.759
31038.46615,3,0.972,-0.371,9.674,4,0.001,0.001,-0.001,5,-57.244,9.844,-5.456,81,80.422,2.405,5.105,82,-0.032,-0.002,-0.068,83,0.877,-0.407,9.759
31038.50658,3,0.931,-0.421,9.677,4,0.001,0.002,0.000,5,-57.056,9.788,-5.588,81,80.427,2.393,5.115,82,0.093,0.034,-0.085,83,0.879,-0.405,9.759
31038.54700,3,0.861,-0.397,9.696,4,-0.000,-0.000,0.000,5,-57.056,9.713,-5.700,81,80.425,2.392,5.115,82,0.052,-0.016,-0.082,83,0.879,-0.405,9.759
31038.58742,3,0.984,-0.394,9.660,4,-0.001,0.002,-0.001,5,-57.188,9.713,-5.700,81,80.425,2.389,5.111,82,-0.017,0.007,-0.063,83,0.878,-0.404,9.759
31038.62784,3,0.861,-0.406,9.677,4,-0.001,0.004,0.000,5,-57.113,9.581,-6.056,81,80.431,2.385,5.121,82,0.104,0.010,-0.099,83,0.880,-0.404,9.759
31038.66827,3,0.936,-0.385,9.677,4,-0.001,0.001,0.001,5,-57.056,9.581,-5.869,81,80.438,2.384,5.114,82,-0.018,-0.002,-0.082,83,0.879,-0.404,9.759
31038.70869,3,0.948,-0.404,9.674,4,-0.001,0.001,-0.001,5,-57.113,9.581,-6.000,81,80.448,2.380,5.120,82,0.056,0.018,-0.082,83,0.880,-0.403,9.759
31038.74911,3,0.864,-0.409,9.696,4,-0.001,0.001,0.002,5,-57.244,9.844,-6.300,81,80.456,2.380,5.126,82,0.067,-0.001,-0.085,83,0.881,-0.403,9.759
31038.78954,3,0.988,-0.392,9.660,4,0.001,-0.000,0.000,5,-56.813,9.713,-6.300,81,80.452,2.381,5.123,82,-0.016,-0.006,-0.063,83,0.880,-0.403,9.759
31038.82996,3,0.881,-0.426,9.691,4,0.001,0.002,-0.001,5,-56.756,9.881,-6.300,81,80.453,2.376,5.135,82,0.106,0.010,-0.099,83,0.882,-0.402,9.759
31038.87038,3,0.907,-0.392,9.689,4,0.001,0.001,0.000,5,-56.813,10.013,-6.056,81,80.441,2.379,5.130,82,-0.000,-0.023,-0.068,83,0.881,-0.403,9.759
31038.91080,3,0.979,-0.402,9.662,4,-0.000,0.002,-0.001,5,-57.056,10.088,-5.756,81,80.428,2.374,5.134,82,0.025,0.010,-0.070,83,0.882,-0.402,9.759
31038.95123,3,0.857,-0.416,9.706,4,-0.001,0.001,0.000,5,-57.656,10.200,-5.700,81,80.412,2.372,5.140,82,0.096,-0.001,-0.097,83,0.883,-0.401,9.759
31038.99165,3,0.967,-0.385,9.653,4,-0.000,-0.000,0.001,5,-57.713,10.125,-5.869,81,80.391,2.374,5.134,82,-0.025,-0.014,-0.053,83,0.882,-0.402,9.759
31039.03207,3,0.902,-0.414,9.672,4,0.003,0.003,-0.001,5,-57.656,10.088,-6.113,81,80.379,2.370,5.142,82,0.084,0.016,-0.106,83,0.883,-0.401,9.759
31039.07250,3,0.905,-0.411,9.691,4,0.001,-0.005,0.000,5,-57.413,9.881,-6.056,81,80.367,2.368,5.141,82,0.019,-0.013,-0.087,83,0.883,-0.401,9.759
31039.11292,3,0.964,-0.402,9.670,4,0.001,0.003,0.000,5,-57.113,9.844,-5.756,81,80.359,2.367,5.144,82,0.022,-0.010,-0.068,83,0.883,-0.401,9.759
31039.15334,3,0.787,-0.416,9.727,4,-0.000,0.002,-0.001,5,-57.244,9.844,-5.456,81,80.359,2.365,5.152,82,0.079,-0.002,-0.088,83,0.885,-0.400,9.758
31039.19377,3,1.053,-0.382,9.586,4,0.011,0.029,-0.004,5,-57.525,9.881,-5.400,81,80.357,2.368,5.134,82,-0.094,-0.015,-0.032,83,0.881,-0.401,9.759
31039.23419,3,1.003,-0.368,9.674,4,0.007,0.011,0.001,5,-57.713,10.200,-5.700,81,80.360,2.344,5.153,82,0.168,0.015,-0.173,83,0.885,-0.397,9.759
31039.27461,3,0.730,-0.450,9.588,4,0.008,0.004,-0.003,5,-57.956,10.200,-5.513,81,80.348,2.348,5.172,82,0.115,0.030,-0.084,83,0.888,-0.398,9.758
31039.31503,3,1.123,-0.392,9.536,4,-0.011,0.024,-0.001,5,-57.188,10.088,-5.700,81,80.333,2.350,5.148,82,-0.154,-0.052,-0.171,83,0.884,-0.398,9.759
31039.35546,3,0.849,-0.392,9.639,4,0.004,0.036,-0.001,5,-57.188,10.013,-5.700,81,80.323,2.362,5.156,82,0.238,0.008,-0.222,83,0.885,-0.400,9.758
31039.39588,3,0.957,-0.387,9.437,4,-0.017,-0.011,-0.002,5,-56.944,10.088,-5.588,81,80.312,2.350,5.164,82,-0.037,0.006,-0.119,83,0.886,-0.398,9.758
31039.43630,3,0.988,-0.387,9.897,4,-0.009,0.031,0.001,5,-56.813,10.125,-5.813,81,80.309,2.370,5.146,82,0.074,0.014,-0.322,83,0.883,-0.401,9.759
31039.47673,3,0.689,-0.445,9.713,4,-0.009,-0.041,0.004,5,-57.244,10.088,-5.869,81,80.293,2.400,5.139,82,0.106,0.020,0.139,83,0.882,-0.407,9.758
31039.51715,3,1.091,-0.428,9.761,4,0.001,0.009,0.000,5,-57.188,10.088,-5.588,81,80.273,2.444,5.105,82,-0.187,-0.031,-0.046,83,0.876,-0.414,9.759
31039.55757,3,0.792,-0.481,9.641,4,-0.000,-0.017,-0.001,5,-57.356,9.713,-5.756,81,80.267,2.441,5.120,82,0.212,-0.014,0.003,83,0.879,-0.414,9.758
31039.59799,3,0.955,-0.406,9.713,4,-0.000,0.005,0.000,5,-57.244,9.788,-5.813,81,80.269,2.454,5.118,82,-0.086,-0.065,-0.117,83,0.878,-0.416,9.758
31039.63842,3,0.912,-0.301,9.595,4,-0.006,0.005,-0.002,5,-57.413,9.544,-5.756,81,80.283,2.441,5.116,82,0.077,0.008,-0.046,83,0.878,-0.414,9.759
31039.67884,3,0.881,-0.543,9.746,4,0.006,0.011,-0.001,5,-57.113,9.788,-6.000,81,80.301,2.425,5.121,82,0.033,0.110,-0.163,83,0.879,-0.411,9.759
31039.71926,3,1.005,-0.351,9.543,4,-0.005,0.013,0.000,5,-57.113,9.581,-5.588,81,80.302,2.473,5.110,82,0.004,-0.124,-0.012,83,0.877,-0.419,9.758
31039.75969,3,0.780,-0.414,9.794,4,-0.000,0.007,-0.002,5,-57.188,9.544,-5.513,81,80.318,2.466,5.102,82,0.130,0.067,-0.216,83,0.875,-0.418,9.759
31039.80011,3,0.993,-0.529,9.576,4,-0.005,-0.041,-0.004,5,-56.813,9.844,-5.456,81,80.330,2.466,5.105,82,-0.096,0.004,0.035,83,0.876,-0.418,9.759
31039.84053,3,0.917,-0.308,9.782,4,0.001,0.016,0.004,5,-57.056,9.788,-5.156,81,80.329,2.490,5.110,82,0.117,-0.107,-0.182,83,0.876,-0.422,9.758
31039.88096,3,0.790,-0.375,9.703,4,-0.014,-0.036,0.000,5,-56.944,9.881,-5.288,81,80.329,2.468,5.134,82,0.036,0.111,0.024,83,0.881,-0.419,9.758
31039.92138,3,1.118,-0.447,9.703,4,-0.014,-0.010,0.006,5,-56.944,10.013,-5.288,81,80.325,2.484,5.157,82,-0.094,0.047,-0.055,83,0.884,-0.422,9.758
31039.96180,3,0.821,-0.411,9.706,4,-0.008,0.007,0.009,5,-57.244,9.788,-5.456,81,80.300,2.539,5.206,82,0.225,-0.016,-0.053,83,0.893,-0.431,9.756
31040.00222,3,1.434,0.249,9.514,4,0.003,-0.000,0.025,5,-57.188,9.844,-5.513,81,80.289,2.547,5.212,82,-0.073,0.021,-0.050,83,0.894,-0.432,9.756
31040.04265,3,1.249,0.067,9.825,4,0.025,0.008,-0.015,5,-57.056,9.844,-5.700,81,80.245,2.447,5.245,82,0.534,0.664,-0.242,83,0.900,-0.415,9.756
31040.08307,3,0.962,0.009,9.227,4,-0.026,0.027,0.010,5,-57.244,9.713,-5.700,81,80.249,2.351,5.321,82,0.336,0.466,0.069,83,0.913,-0.399,9.756
31040.12349,3,0.873,-0.033,9.967,4,-0.007,0.014,0.107,5,-57.413,9.788,-5.400,81,80.278,2.318,5.269,82,0.058,0.402,-0.530,83,0.904,-0.393,9.757
31040.16392,3,0.902,-0.097,9.382,4,0.008,-0.021,0.154,5,-57.488,10.013,-5.456,81,80.141,2.267,5.259,82,-0.030,0.352,0.210,83,0.903,-0.385,9.757
31040.20434,3,1.293,0.189,9.842,4,0.013,0.025,0.164,5,-57.488,10.200,-5.213,81,79.826,2.241,5.212,82,0.007,0.284,-0.376,83,0.895,-0.381,9.758
31040.24476,3,1.388,-0.102,9.571,4,0.009,-0.008,0.062,5,-57.488,10.444,-5.100,81,79.508,2.145,5.229,82,0.395,0.553,0.083,83,0.898,-0.364,9.759
31040.28518,3,1.163,-0.107,9.622,4,-0.012,0.030,-0.064,5,-57.525,10.444,-4.556,81,79.258,2.103,5.261,82,0.485,0.255,-0.187,83,0.903,-0.357,9.758
31040.32561,3,0.622,-0.481,9.789,4,0.009,-0.003,-0.028,5,-57.788,10.200,-4.256,81,79.330,2.043,5.247,82,0.262,0.240,-0.137,83,0.901,-0.347,9.759
31040.36603,3,0.941,-0.054,9.593,4,0.001,-0.014,0.036,5,-58.088,9.788,-3.356,81,79.519,2.058,5.201,82,-0.271,-0.131,0.029,83,0.893,-0.350,9.760
31040.40645,3,0.993,-0.251,9.718,4,-0.002,0.011,0.013,5,-58.688,9.713,-2.756,81,79.537,2.018,5.213,82,0.046,0.289,-0.167,83,0.895,-0.343,9.760
31040.44688,3,0.758,-0.035,9.641,4,0.009,0.006,0.110,5,-58.988,9.169,-2.288,81,79.567,1.983,5.221,82,0.097,0.086,-0.042,83,0.896,-0.337,9.760
31040.48730,3,1.084,-0.057,9.598,4,0.038,0.034,0.115,5,-59.156,9.300,-1.913,81,79.562,1.952,5.229,82,-0.140,0.297,-0.119,83,0.898,-0.332,9.760
31040.52772,3,0.967,-0.366,9.758,4,0.022,0.033,0.057,5,-59.588,9.413,-1.256,81,79.353,1.917,5.204,82,0.191,0.269,-0.162,83,0.893,-0.326,9.760
31040.56814,3,0.974,-0.272,9.543,4,-0.003,0.018,0.035,5,-59.344,9.469,-0.788,81,79.260,1.902,5.090,82,0.093,-0.043,-0.004,83,0.874,-0.323,9.762
31040.60857,3,0.917,-0.366,9.758,4,-0.001,-0.017,0.025,5,-59.456,9.544,0.113,81,79.249,1.907,5.098,82,0.099,0.052,-0.219,83,0.875,-0.324,9.762
31040.64899,3,0.768,-0.536,9.500,4,0.014,0.056,-0.017,5,-59.513,9.469,0.525,81,79.250,1.895,5.023,82,0.055,-0.044,-0.005,83,0.862,-0.322,9.763
31040.68941,3,0.742,-0.327,9.777,4,-0.009,-0.053,-0.005,5,-59.813,9.469,0.788,81,79.363,1.925,5.035,82,-0.096,-0.208,-0.263,83,0.864,-0.327,9.763
31040.72984,3,1.151,0.100,9.552,4,-0.002,-0.027,-0.038,5,-59.644,9.244,1.388,81,79.453,1.925,4.963,82,-0.110,0.001,0.013,83,0.852,-0.328,9.764
31040.77026,3,0.775,-0.315,9.727,4,-0.003,-0.025,-0.034,5,-60.188,9.000,1.688,81,79.625,1.870,5.131,82,0.271,0.418,-0.210,83,0.880,-0.318,9.762
31040.81068,3,1.202,0.074,9.480,4,-0.019,-0.045,-0.016,5,-60.356,8.513,2.288,81,79.808,1.876,5.108,82,-0.101,0.004,-0.035,83,0.876,-0.319,9.762
31040.85110,3,0.454,-0.483,10.024,4,-0.006,-0.039,0.101,5,-60.244,7.800,3.000,81,79.970,1.849,5.249,82,0.301,0.389,-0.280,83,0.901,-0.315,9.760
31040.89153,3,1.051,-0.466,8.872,4,-0.036,0.030,0.059,5,-60.788,7.013,3.600,81,79.994,1.894,5.153,82,-0.430,-0.161,0.263,83,0.884,-0.322,9.761
31040.93195,3,0.763,-0.598,10.563,4,-0.032,-0.007,0.071,5,-60.525,5.944,4.181,81,79.974,1.964,5.345,82,0.134,-0.132,-0.886,83,0.917,-0.334,9.758
31040.97237,3,0.550,-0.366,9.325,4,0.021,-0.007,0.060,5,-60.525,4.913,5.044,81,80.025,2.100,5.125,82,-0.116,-0.241,0.802,83,0.879,-0.357,9.761
31041.01280,3,1.094,0.033,9.636,4,-0.036,-0.039,0.073,5,-60.113,4.144,5.644,81,80.197,2.081,5.350,82,-0.367,-0.012,-0.432,83,0.917,-0.354,9.757
31041.05322,3,0.917,-0.021,9.421,4,-0.030,0.023,-0.010,5,-59.869,3.544,6.113,81,80.279,2.052,5.299,82,0.185,0.382,-0.122,83,0.909,-0.349,9.758
31041.09364,3,0.658,-0.275,8.858,4,-0.205,-0.200,0.102,5,-59.288,2.813,6.881,81,80.583,2.076,5.367,82,-0.003,0.332,-0.336,83,0.920,-0.353,9.757
31041.13407,3,1.551,-0.502,11.258,4,0.060,0.192,-0.033,5,-59.156,2.044,7.444,81,80.732,2.461,5.423,82,-0.272,0.144,-0.896,83,0.930,-0.419,9.753
31041.17449,3,-0.208,-0.725,8.582,4,-0.066,-0.334,0.145,5,-58.144,1.013,8.344,81,81.068,2.518,5.447,82,0.617,-0.074,1.505,83,0.934,-0.429,9.753
31041.21491,3,2.033,-0.964,10.822,4,-0.036,-0.247,0.045,5,-56.869,-0.188,9.544,81,81.330,2.606,5.369,82,-1.129,-0.281,-1.171,83,0.921,-0.444,9.753
31041.25533,3,0.493,-0.318,8.089,4,0.082,-0.022,0.185,5,-55.688,-0.956,10.669,81,81.459,2.795,6.032,82,0.999,-0.489,1.082,83,1.034,-0.475,9.740
31041.29576,3,1.252,-0.881,10.609,4,0.002,0.021,0.148,5,-53.644,-1.256,12.169,81,81.657,2.794,5.993,82,-0.534,0.157,-1.652,83,1.027,-0.475,9.741
31041.33618,3,0.878,-0.363,9.078,4,-0.019,0.055,0.152,5,-52.856,-1.556,13.313,81,81.616,2.809,5.959,82,0.231,-0.403,0.867,83,1.021,-0.478,9.742
31041.37660,3,0.943,-0.258,9.885,4,0.057,0.241,0.047,5,-51.188,-1.556,14.513,81,81.715,2.878,5.786,82,-0.114,0.127,-0.666,83,0.992,-0.490,9.744
31041.41703,3,0.699,-0.392,9.279,4,-0.078,0.130,0.013,5,-50.156,-1.556,15.713,81,81.905,2.792,5.328,82,0.029,0.217,0.133,83,0.914,-0.475,9.752
31041.45745,3,0.588,-0.529,10.395,4,0.009,-0.071,-0.069,5,-48.956,-1.688,16.913,81,82.210,2.805,4.849,82,-0.133,0.086,-0.481,83,0.832,-0.478,9.760
31041.49787,3,0.919,-1.139,9.651,4,-0.020,-0.118,-0.040,5,-47.213,-1.556,17.644,81,82.637,2.791,4.732,82,-0.224,-0.053,0.634,83,0.812,-0.476,9.761
31041.53829,3,0.878,-0.964,9.219,4,-0.013,-0.031,-0.070,5,-46.088,-1.500,18.713,81,83.010,3.025,5.130,82,0.039,-0.624,-0.103,83,0.880,-0.515,9.754
31041.57872,3,0.655,-0.713,10.015,4,-0.049,-0.077,0.011,5,-44.644,-1.256,19.144,81,83.414,3.083,5.191,82,-0.012,-0.439,-0.533,83,0.890,-0.525,9.752
31041.61914,3,1.089,-1.137,9.143,4,-0.011,-0.032,0.042,5,-43.688,-0.656,19.744,81,83.712,3.165,5.479,82,-0.284,-0.174,0.268,83,0.939,-0.539,9.747
31041.65956,3,1.305,-0.148,9.761,4,0.031,0.019,0.004,5,-42.788,-0.413,20.925,81,83.801,3.293,5.602,82,0.129,-0.577,-0.601,83,0.960,-0.560,9.743
31041.69999,3,0.830,0.412,9.423,4,0.008,0.036,-0.010,5,-42.113,0.488,21.244,81,83.933,3.140,5.714,82,0.326,0.386,0.018,83,0.979,-0.534,9.743
31041.74041,3,1.034,0.357,9.914,4,-0.018,0.070,-0.061,5,-41.213,1.313,22.144,81,84.121,3.024,5.579,82,-0.126,0.927,-0.323,83,0.956,-0.515,9.746
31041.78083,3,0.735,-0.347,9.593,4,0.026,0.138,-0.104,5,-40.313,1.913,22.425,81,84.303,2.884,5.557,82,0.082,0.848,0.166,83,0.952,-0.491,9.748
31041.82125,3,1.302,-0.035,9.828,4,-0.006,0.009,-0.051,5,-39.488,2.700,22.800,81,84.652,2.849,5.242,82,-0.164,0.138,-0.160,83,0.899,-0.485,9.753
31041.86168,3,0.852,-0.382,9.507,4,0.024,0.002,-0.035,5,-38.644,3.544,23.344,81,84.778,2.706,5.145,82,0.420,0.426,0.072,83,0.882,-0.461,9.756
31041.90210,3,0.845,-0.086,9.188,4,0.197,0.173,-0.045,5,-38.513,4.144,23.700,81,84.846,2.704,5.183,82,-0.037,0.078,-0.248,83,0.889,-0.461,9.755
31041.94252,3,0.972,-0.617,11.943,4,-0.804,-0.948,-0.018,5,-38.156,4.781,23.925,81,84.845,2.550,4.996,82,-0.012,0.349,-0.572,83,0.857,-0.434,9.759
31041.98295,3,1.020,-0.136,6.891,4,-0.042,0.441,0.010,5,-38.156,5.700,23.700,81,84.894,2.098,5.795,82,-0.021,-0.260,2.193,83,0.993,-0.357,9.750
31042.02337,3,1.115,-0.950,11.212,4,-0.024,-0.003,0.010,5,-37.425,6.000,23.888,81,84.887,1.823,4.990,82,0.164,0.175,-2.873,83,0.856,-0.311,9.764
31042.06379,3,0.811,-0.895,8.451,4,-0.049,-0.065,0.041,5,-36.788,6.881,23.888,81,84.746,1.954,5.384,82,0.192,-0.617,1.455,83,0.923,-0.333,9.757
31042.10421,3,1.079,-0.864,10.498,4,-0.001,0.040,0.061,5,-36.544,7.200,23.700,81,84.525,1.980,5.148,82,-0.071,-0.558,-1.310,83,0.883,-0.337,9.761
31042.14464,3,0.744,-0.440,9.104,4,-0.025,-0.069,0.060,5,-36.413,7.800,23.888,81,84.202,2.078,5.338,82,0.164,-0.510,0.741,83,0.915,-0.354,9.757
31042.18506,3,1.132,-0.900,10.053,4,0.005,0.081,0.025,5,-37.013,8.344,23.400,81,83.859,2.090,5.185,82,-0.145,-0.084,-0.656,83,0.889,-0.356,9.760
31042.22548,3,0.457,-0.124,9.294,4,-0.015,-0.056,0.161,5,-37.144,8.888,22.800,81,83.549,2.195,5.217,82,0.238,-0.526,0.294,83,0.894,-0.374,9.759
31042.26591,3,0.907,-0.162,9.885,4,-0.003,0.025,0.176,5,-37.425,9.713,22.744,81,83.136,2.193,5.191,82,-0.433,0.250,-0.465,83,0.890,-0.374,9.759
31042.30633,3,1.010,-0.361,9.665,4,-0.020,-0.083,0.130,5,-37.388,10.088,22.144,81,82.461,2.199,5.179,82,0.019,0.213,0.126,83,0.888,-0.375,9.759
31042.34675,3,1.168,-0.330,9.653,4,-0.015,0.031,0.115,5,-37.313,10.500,22.088,81,81.744,2.264,5.290,82,0.103,0.025,-0.092,83,0.907,-0.386,9.757
31042.38717,3,1.278,-0.306,9.581,4,-0.026,-0.025,0.111,5,-37.556,11.100,21.488,81,81.280,2.312,5.332,82,0.254,0.064,-0.103,83,0.914,-0.394,9.756
31042.42760,3,0.119,0.187,9.502,4,0.023,0.135,0.265,5,-37.856,11.644,20.925,81,80.674,2.341,5.386,82,0.355,0.093,-0.174,83,0.923,-0.399,9.755
31042.46802,3,0.730,-1.154,9.787,4,0.003,-0.027,0.127,5,-38.156,12.000,20.513,81,80.050,2.320,5.249,82,-0.781,0.582,-0.255,83,0.900,-0.395,9.757
31042.50844,3,0.917,-0.569,10.077,4,-0.018,0.028,0.111,5,-38.156,12.413,20.025,81,79.195,2.551,5.039,82,-0.133,-0.719,0.028,83,0.864,-0.435,9.759
31042.54887,3,0.893,-0.852,9.349,4,-0.044,-0.053,0.005,5,-38.456,12.600,20.213,81,78.581,2.606,4.906,82,0.076,-0.125,0.317,83,0.841,-0.444,9.760
31042.58929,3,1.352,-0.107,9.799,4,-0.007,-0.077,-0.011,5,-38.213,12.600,20.213,81,78.161,2.714,5.001,82,0.036,-0.389,-0.409,83,0.857,-0.463,9.758
31042.62971,3,1.211,-0.045,9.389,4,-0.012,0.009,0.060,5,-38.156,12.844,20.400,81,77.978,2.636,5.236,82,0.455,0.342,0.044,83,0.897,-0.449,9.755
31042.67013,3,1.522,-0.481,9.466,4,-0.094,0.002,-0.041,5,-38.044,12.844,20.588,81,77.653,2.600,5.228,82,0.315,0.398,-0.367,83,0.896,-0.443,9.756
31042.71056,3,1.625,-1.664,10.082,4,-0.092,0.116,-0.045,5,-38.156,12.713,20.700,81,77.396,2.722,5.349,82,0.606,-0.017,-0.287,83,0.916,-0.464,9.753
31042.75098,3,0.723,1.367,8.259,4,0.015,0.278,-0.209,5,-38.288,13.088,20.925,81,77.247,3.019,5.262,82,0.724,-1.150,0.330,83,0.901,-0.514,9.752
31042.79140,3,0.423,-0.114,9.777,4,-0.015,-0.134,0.214,5,-38.456,12.900,21.000,81,77.792,2.825,5.254,82,-0.177,1.848,-1.494,83,0.900,-0.481,9.753
31042.83183,3,0.945,-0.677,7.835,4,-0.015,-0.029,0.281,5,-38.869,13.781,20.644,81,77.440,2.766,5.351,82,-0.494,0.357,0.025,83,0.917,-0.471,9.752
31042.87225,3,0.294,-1.290,10.371,4,0.034,0.172,-0.058,5,-38.813,14.044,20.700,81,76.507,2.965,5.330,82,0.032,-0.172,-1.916,83,0.913,-0.505,9.751
31042.91267,3,-0.069,-0.675,9.765,4,-0.003,-0.014,-0.225,5,-39.225,14.344,20.344,81,75.971,3.080,5.134,82,-0.586,-0.765,0.618,83,0.880,-0.525,9.753
31042.95309,3,0.833,-0.121,9.706,4,0.017,0.027,-0.202,5,-39.488,14.944,20.100,81,76.137,3.132,4.906,82,-0.910,-0.141,0.009,83,0.841,-0.534,9.756
31042.99352,3,0.497,0.136,8.817,4,-0.071,-0.024,-0.043,5,-39.656,14.813,20.269,81,76.419,2.953,5.061,82,-0.034,0.382,-0.049,83,0.867,-0.503,9.755
31043.03394,3,1.271,-0.301,9.873,4,0.051,0.183,-0.053,5,-39.788,14.288,20.513,81,76.308,2.951,4.959,82,-0.353,0.639,-0.940,83,0.850,-0.503,9.757
31043.07436,3,0.301,0.539,9.684,4,-0.061,0.134,-0.181,5,-40.313,14.044,20.925,81,76.109,3.005,5.024,82,0.410,0.211,0.118,83,0.861,-0.512,9.755
31043.11479,3,0.797,0.575,10.225,4,-0.148,-0.192,-0.082,5,-41.044,13.913,20.925,81,76.271,2.801,4.400,82,-0.453,1.017,-0.082,83,0.754,-0.478,9.766
31043.15521,3,0.694,0.484,9.849,4,-0.207,-0.162,0.047,5,-41.813,14.213,21.113,81,76.336,3.062,4.650,82,0.000,1.097,0.465,83,0.797,-0.522,9.760
31043.19563,3,1.230,-1.151,9.933,4,-0.119,-0.172,-0.068,5,-42.656,14.513,20.925,81,76.152,3.095,4.654,82,-0.104,1.012,0.089,83,0.798,-0.528,9.760
31043.23605,3,0.972,-0.507,8.714,4,0.023,0.082,-0.151,5,-42.656,14.400,20.813,81,75.863,3.605,5.146,82,0.349,-0.537,0.185,83,0.881,-0.614,9.748
31043.27648,3,0.984,-1.319,10.537,4,-0.036,0.228,-0.248,5,-42.488,14.344,21.300,81,75.929,3.516,5.391,82,0.049,0.092,-1.031,83,0.923,-0.599,9.745
31043.31690,3,0.459,-0.529,8.925,4,0.203,0.291,-0.358,5,-42.656,13.781,21.488,81,76.116,3.442,5.358,82,0.066,-0.733,0.791,83,0.918,-0.586,9.746
31043.35732,3,0.952,-0.823,9.998,4,0.354,-0.308,-0.163,5,-42.788,13.613,21.600,81,76.759,3.160,4.577,82,-0.325,0.010,-0.835,83,0.784,-0.539,9.760
31043.39775,3,0.742,-0.215,9.198,4,0.373,-0.016,-0.206,5,-42.956,13.388,21.488,81,77.007,2.498,4.960,82,0.102,-0.397,0.237,83,0.850,-0.426,9.760
31043.43817,3,1.702,-0.826,11.737,4,0.301,0.634,-0.247,5,-43.369,13.013,21.300,81,77.289,1.516,5.048,82,-0.123,0.044,-0.567,83,0.865,-0.259,9.765
31043.47859,3,0.114,-0.816,8.597,4,-0.038,-0.003,-0.280,5,-43.913,13.088,20.888,81,77.544,1.274,4.636,82,0.908,-0.609,1.965,83,0.794,-0.217,9.772
31043.51901,3,0.655,-0.713,10.534,4,-0.002,0.172,-0.174,5,-44.044,12.900,20.344,81,77.872,1.217,3.587,82,-0.501,-0.608,-1.188,83,0.615,-0.208,9.785
31043.55944,3,0.610,-0.641,9.365,4,-0.000,-0.124,-0.111,5,-44.869,13.013,19.988,81,78.202,1.279,3.632,82,0.032,-0.494,0.750,83,0.623,-0.219,9.784
31043.59986,3,0.677,-0.929,10.122,4,0.008,-0.109,-0.141,5,-45.413,13.144,19.500,81,78.327,1.293,3.474,82,0.014,-0.420,-0.421,83,0.596,-0.221,9.786
31043.64028,3,0.646,-0.847,9.512,4,0.018,-0.197,-0.148,5,-45.713,13.013,19.181,81,78.364,1.375,3.805,82,0.025,-0.694,0.340,83,0.652,-0.235,9.782
31043.68071,3,0.411,-1.020,10.403,4,0.048,-0.311,-0.234,5,-46.256,13.013,18.844,81,78.464,1.404,4.122,82,-0.060,-0.607,-0.266,83,0.706,-0.240,9.778
31043.72113,3,0.802,0.014,9.433,4,-0.099,-0.024,-0.123,5,-46.688,12.788,18.844,81,78.691,1.384,4.655,82,-0.386,-0.784,0.632,83,0.797,-0.236,9.771
31043.76155,3,0.849,-0.933,9.593,4,-0.025,-0.144,-0.041,5,-46.988,12.413,19.181,81,78.901,1.351,5.168,82,-0.083,0.244,-0.331,83,0.885,-0.230,9.764
31043.80197,3,0.624,-0.612,9.957,4,0.003,-0.045,-0.025,5,-47.344,12.000,19.500,81,78.832,1.495,5.300,82,-0.058,-0.678,-0.168,83,0.907,-0.255,9.761
31043.84240,3,1.146,-0.615,9.318,4,0.034,0.002,0.049,5,-47.456,11.888,19.688,81,78.766,1.545,5.477,82,-0.313,-0.349,0.199,83,0.937,-0.263,9.758
31043.88282,3,1.048,-0.430,9.617,4,0.030,0.011,0.063,5,-47.456,11.888,19.688,81,78.534,1.562,5.614,82,0.185,-0.349,-0.438,83,0.961,-0.266,9.756
31043.92324,3,0.814,-0.433,9.212,4,0.028,0.133,0.171,5,-47.288,11.944,19.181,81,78.288,1.529,5.623,82,0.086,-0.170,-0.139,83,0.962,-0.260,9.756
31043.96367,3,0.660,-0.509,10.137,4,0.026,-0.008,0.242,5,-47.213,11.944,19.013,81,77.867,1.492,5.398,82,-0.110,-0.179,-0.548,83,0.924,-0.254,9.760
31044.00409,3,0.926,-0.062,9.492,4,-0.084,-0.083,0.237,5,-47.644,12.488,19.088,81,77.323,1.486,5.320,82,-0.251,-0.256,0.376,83,0.911,-0.253,9.761
31044.04451,3,0.361,0.177,10.453,4,-0.107,0.035,0.502,5,-47.756,12.844,18.844,81,76.625,1.462,5.447,82,-0.006,0.187,-0.267,83,0.932,-0.249,9.759
31044.08493,3,0.586,-0.066,9.385,4,0.193,-0.103,0.664,5,-48.356,13.613,18.000,81,75.756,1.914,5.582,82,-0.594,0.503,0.698,83,0.955,-0.326,9.755
31044.12536,3,1.027,-0.378,8.721,4,-0.139,0.211,0.654,5,-48.788,14.813,17.400,81,74.108,1.793,5.535,82,-0.361,0.239,-0.371,83,0.947,-0.305,9.756
31044.16578,3,1.614,-0.962,9.500,4,-0.189,0.269,0.407,5,-49.369,15.825,16.369,81,72.458,1.922,5.348,82,0.112,-0.050,-1.037,83,0.915,-0.328,9.758
31044.20620,3,1.515,-0.897,11.789,4,0.232,-0.132,0.079,5,-50.025,17.100,15.113,81,71.387,2.411,4.903,82,0.774,-0.551,-0.262,83,0.840,-0.411,9.762
31044.24662,3,1.815,-0.069,6.721,4,-0.063,0.160,-0.097,5,-51.056,18.244,13.988,81,70.833,2.330,4.940,82,0.669,-0.500,2.027,83,0.846,-0.397,9.762
31044.28705,3,1.592,-2.945,14.654,4,0.417,-0.419,-0.372,5,-52.913,18.244,11.588,81,70.876,1.914,4.744,82,1.003,0.258,-3.046,83,0.812,-0.327,9.767
31044.32747,3,0.770,-0.574,9.085,4,-0.048,0.075,-0.387,5,-54.056,17.100,10.500,81,71.222,2.428,4.728,82,0.782,-2.531,4.890,83,0.810,-0.414,9.764
31044.36789,3,0.548,-1.185,10.398,4,-0.045,-0.110,-0.274,5,-55.688,15.169,9.113,81,72.244,2.240,4.374,82,0.021,-0.192,-0.685,83,0.749,-0.382,9.771
31044.40832,3,0.998,-0.349,9.231,4,-0.049,-0.019,-0.227,5,-56.513,12.713,8.700,81,72.942,2.393,4.746,82,-0.265,-0.777,0.634,83,0.813,-0.408,9.764
31044.44874,3,1.079,-0.224,10.288,4,-0.035,-0.121,0.027,5,-57.113,10.200,8.588,81,73.707,2.406,4.681,82,0.196,0.061,-0.534,83,0.802,-0.410,9.765
31044.48916,3,1.197,-0.648,8.257,4,-0.034,0.220,0.266,5,-56.644,7.744,9.000,81,74.231,2.508,5.116,82,0.203,0.204,0.530,83,0.876,-0.427,9.758
31044.52958,3,1.194,-0.644,9.512,4,0.109,0.117,0.333,5,-55.913,5.700,10.800,81,74.254,2.621,5.242,82,0.300,-0.201,-1.498,83,0.897,-0.447,9.755
31044.57001,3,0.821,-0.555,10.180,4,-0.022,0.082,0.244,5,-54.788,4.181,12.113,81,73.993,2.530,5.164,82,0.310,-0.213,-0.245,83,0.884,-0.431,9.757
31044.61043,3,0.675,-0.545,10.192,4,0.290,0.035,0.018,5,-53.288,3.244,13.988,81,73.871,2.593,5.052,82,-0.044,-0.113,0.422,83,0.865,-0.442,9.758
31044.65085,3,2.430,-0.426,10.747,4,0.446,-0.392,0.104,5,-52.369,3.113,16.013,81,74.094,2.508,5.032,82,-0.186,-0.117,0.433,83,0.861,-0.428,9.759
31044.69128,3,0.131,-0.418,10.237,4,0.005,-0.125,-0.009,5,-50.756,2.888,17.681,81,74.430,2.057,5.658,82,1.462,-0.076,0.995,83,0.968,-0.350,9.752
31044.73170,3,1.249,-0.105,10.031,4,0.067,0.048,-0.141,5,-48.844,3.000,20.888,81,74.896,1.912,5.229,82,-0.764,-0.092,0.477,83,0.895,-0.326,9.760
31044.77212,3,1.103,-0.169,9.492,4,-0.038,-0.064,-0.266,5,-48.113,3.113,21.544,81,75.480,1.935,5.371,82,0.330,0.225,0.273,83,0.919,-0.330,9.758
31044.81254,3,0.883,-0.162,9.830,4,-0.068,-0.063,-0.294,5,-46.256,2.700,22.913,81,76.377,1.871,5.448,82,0.171,0.150,-0.265,83,0.932,-0.319,9.757
31044.85297,3,0.964,-0.117,9.528,4,-0.014,-0.011,-0.258,5,-44.513,2.813,24.113,81,77.392,1.916,5.606,82,-0.076,0.164,0.076,83,0.959,-0.326,9.754
31044.89339,3,1.228,-0.136,9.567,4,-0.030,0.037,-0.128,5,-42.544,2.888,25.500,81,78.251,1.855,5.650,82,-0.003,0.199,-0.226,83,0.967,-0.316,9.754
31044.93381,3,1.055,-0.181,9.617,4,0.026,-0.025,-0.029,5,-40.556,2.700,26.813,81,79.000,1.814,5.847,82,0.228,0.173,-0.184,83,1.000,-0.309,9.751
31044.97424,3,1.261,-0.291,9.763,4,0.021,-0.032,-0.032,5,-39.056,3.113,28.500,81,79.346,1.739,5.833,82,0.057,0.115,-0.134,83,0.998,-0.296,9.751
31045.01466,3,1.034,-0.538,9.780,4,0.018,-0.015,-0.088,5,-37.313,3.413,29.813,81,79.551,1.702,5.985,82,0.237,-0.001,0.014,83,1.024,-0.290,9.749
31045.05508,3,1.247,-0.483,9.107,4,-0.030,0.059,-0.170,5,-35.925,3.713,31.200,81,79.823,1.707,5.958,82,0.015,-0.247,0.031,83,1.019,-0.291,9.749
31045.09550,3,1.075,-0.703,9.902,4,-0.051,0.067,-0.189,5,-34.313,5.044,32.081,81,80.188,1.693,5.975,82,0.225,-0.195,-0.642,83,1.022,-0.288,9.749
31045.13593,3,1.259,-0.627,9.991,4,0.019,-0.025,-0.168,5,-32.756,6.788,33.000,81,80.630,1.846,5.717,82,0.097,-0.389,0.149,83,0.978,-0.314,9.753
31045.17635,3,0.957,-0.406,9.047,4,-0.038,0.042,-0.134,5,-31.425,8.625,33.844,81,80.989,1.873,5.795,82,0.268,-0.308,0.240,83,0.991,-0.319,9.751
31045.21677,3,0.974,-0.524,9.801,4,-0.035,0.109,-0.122,5,-30.056,11.944,34.200,81,81.220,1.857,5.715,82,-0.021,-0.090,-0.706,83,0.978,-0.316,9.753
31045.25719,3,0.794,-0.421,9.593,4,-0.042,0.133,-0.084,5,-29.925,12.844,34.013,81,81.228,1.962,5.613,82,0.014,-0.190,0.047,83,0.960,-0.334,9.754
31045.29762,3,0.885,-0.675,10.359,4,-0.003,-0.061,-0.114,5,-30.244,14.644,33.225,81,81.106,2.036,5.291,82,-0.111,-0.074,-0.166,83,0.905,-0.347,9.759
31045.33804,3,0.914,-0.651,7.564,4,-0.140,0.109,-0.044,5,-31.013,16.369,32.288,81,80.958,2.117,5.223,82,-0.009,-0.314,0.600,83,0.894,-0.361,9.759
31045.37846,3,0.778,-0.708,12.402,4,0.070,-0.148,-0.060,5,-32.213,18.244,31.425,81,80.615,2.248,5.167,82,0.030,-0.268,-2.195,83,0.884,-0.383,9.759
31045.41889,3,0.663,-0.749,8.570,4,0.079,-0.136,-0.034,5,-33.713,19.500,30.413,81,80.157,2.301,5.040,82,-0.084,-0.316,2.641,83,0.862,-0.392,9.761
31045.45931,3,0.873,-0.828,10.108,4,-0.000,-0.009,-0.148,5,-34.988,20.400,29.288,81,79.534,2.174,5.252,82,-0.236,-0.379,-1.188,83,0.899,-0.370,9.758
31045.49973,3,0.404,-0.713,9.176,4,-0.034,0.141,-0.106,5,-36.113,21.188,28.313,81,79.108,2.216,5.086,82,0.003,-0.450,0.347,83,0.870,-0.378,9.761
31045.54015,3,0.392,-0.330,9.955,4,-0.049,0.042,-0.037,5,-37.688,21.488,26.888,81,78.676,2.249,4.954,82,-0.444,-0.329,-0.586,83,0.848,-0.384,9.762
31045.58058,3,0.500,-0.512,9.986,4,0.035,0.015,0.147,5,-39.188,21.713,26.044,81,78.103,2.332,4.748,82,-0.421,0.068,0.190,83,0.813,-0.398,9.765
31045.62100,3,0.471,-0.572,9.746,4,-0.003,-0.144,0.213,5,-40.369,21.900,25.313,81,77.119,2.364,4.673,82,-0.300,-0.109,0.220,83,0.800,-0.403,9.766
31045.66142,3,0.754,-0.763,9.974,4,0.066,-0.032,0.302,5,-41.813,21.900,24.113,81,76.023,2.448,4.687,82,-0.331,-0.154,-0.019,83,0.802,-0.418,9.765
31045.70185,3,1.032,-0.644,8.997,4,0.020,-0.109,0.317,5,-43.144,22.088,22.744,81,74.786,2.471,4.888,82,-0.083,-0.342,0.212,83,0.837,-0.421,9.762
31045.74227,3,1.448,-0.809,9.619,4,0.011,0.118,0.304,5,-43.144,22.388,22.013,81,73.409,2.445,5.078,82,0.163,-0.227,-0.762,83,0.869,-0.417,9.759
31045.78269,3,1.269,-0.883,9.550,4,-0.035,0.029,0.081,5,-43.913,22.913,20.813,81,72.191,2.558,5.080,82,0.579,-0.373,-0.139,83,0.869,-0.436,9.758
31045.82311,3,1.015,-0.632,10.022,4,0.030,0.016,0.158,5,-44.756,23.888,20.025,81,71.327,2.654,4.986,82,0.416,-0.430,-0.209,83,0.853,-0.453,9.759
31045.86354,3,1.302,-0.845,9.950,4,0.081,-0.162,0.184,5,-45.713,24.300,19.013,81,70.644,2.698,4.908,82,0.175,-0.172,0.262,83,0.840,-0.460,9.760
31045.90396,3,1.099,-0.823,8.398,4,-0.033,0.107,0.126,5,-46.556,24.600,18.413,81,69.742,2.709,5.049,82,0.438,-0.383,0.192,83,0.864,-0.462,9.758
31045.94438,3,0.797,-1.010,10.319,4,-0.055,0.234,-0.111,5,-47.344,24.544,17.644,81,68.934,2.719,4.754,82,0.286,-0.359,-1.364,83,0.813,-0.464,9.762
31045.98480,3,0.117,-0.284,9.639,4,0.009,-0.094,-0.049,5,-48.244,24.000,17.100,81,68.705,2.935,4.476,82,0.031,-0.509,0.555,83,0.766,-0.501,9.764
31046.02523,3,0.550,-0.133,9.310,4,0.105,0.216,0.086,5,-48.788,23.288,16.613,81,68.595,2.847,4.258,82,-0.612,0.202,-0.128,83,0.729,-0.486,9.767
31046.06565,3,0.445,0.213,11.313,4,0.068,-0.208,0.181,5,-49.744,22.688,16.181,81,68.236,2.742,4.344,82,-0.194,0.335,-0.457,83,0.744,-0.468,9.767
31046.10607,3,1.887,-0.802,8.077,4,-0.039,-0.040,0.092,5,-50.456,21.788,16.013,81,67.737,2.452,3.943,82,-0.230,0.632,1.539,83,0.675,-0.419,9.774
31046.14650,3,1.077,-0.129,9.720,4,-0.029,0.124,-0.083,5,-50.644,21.188,15.713,81,67.400,2.501,3.909,82,1.218,-0.375,-1.697,83,0.669,-0.427,9.774
31046.18692,3,0.842,-0.675,8.956,4,0.020,-0.007,-0.235,5,-50.944,20.213,15.825,81,67.384,2.325,3.905,82,0.408,0.268,-0.056,83,0.669,-0.397,9.776
31046.22734,3,0.430,-0.277,10.062,4,-0.050,-0.066,-0.239,5,-51.244,19.500,15.825,81,67.740,2.230,3.899,82,0.174,-0.294,-0.820,83,0.668,-0.381,9.776
31046.26776,3,1.039,-0.941,9.363,4,-0.005,-0.149,-0.018,5,-51.413,18.713,16.181,81,68.362,2.214,4.122,82,-0.276,0.101,0.288,83,0.706,-0.378,9.774
31046.30819,3,0.246,-0.066,9.478,4,0.010,0.064,0.015,5,-51.656,17.813,17.025,81,68.752,2.338,4.432,82,0.280,-0.542,-0.406,83,0.759,-0.399,9.769
31046.34861,3,0.200,-0.512,9.639,4,0.089,0.079,0.094,5,-51.488,16.988,17.400,81,68.896,2.262,4.433,82,-0.513,0.320,-0.292,83,0.759,-0.386,9.770
31046.38903,3,0.097,-0.497,9.912,4,0.025,0.046,0.104,5,-50.944,16.181,18.525,81,68.789,2.140,4.164,82,-0.513,-0.147,-0.135,83,0.713,-0.365,9.774
31046.42946,3,0.454,-1.101,9.411,4,0.067,0.010,0.000,5,-50.344,15.544,19.313,81,68.736,2.095,4.006,82,-0.589,-0.139,0.136,83,0.686,-0.358,9.776
31046.46988,3,0.699,-1.446,9.674,4,0.089,0.090,0.022,5,-49.444,15.169,19.613,81,68.780,2.081,3.866,82,-0.208,-0.746,-0.367,83,0.662,-0.355,9.778
31046.51030,3,0.878,-1.436,10.036,4,0.003,0.025,0.246,5,-48.713,15.113,20.025,81,69.018,2.321,3.686,82,0.068,-1.050,-0.104,83,0.631,-0.396,9.778
31046.55072,3,0.287,-1.391,9.868,4,0.030,-0.278,0.277,5,-47.944,15.281,20.025,81,68.736,2.364,3.444,82,0.288,-1.032,0.255,83,0.590,-0.404,9.781
31046.59115,3,0.509,-1.333,9.619,4,0.010,0.078,0.355,5,-47.456,15.544,20.400,81,68.272,2.601,3.575,82,-0.325,-0.947,0.091,83,0.612,-0.444,9.777
31046.63157,3,1.053,-1.525,9.873,4,-0.006,-0.086,0.221,5,-46.744,16.013,20.888,81,67.537,2.856,3.576,82,-0.103,-0.845,-0.156,83,0.612,-0.488,9.775
31046.67199,3,1.681,-1.364,9.701,4,-0.012,-0.059,0.094,5,-46.144,16.181,21.188,81,67.125,2.991,3.528,82,0.449,-1.014,0.098,83,0.604,-0.511,9.775
31046.71241,3,0.842,-0.672,9.545,4,0.004,0.094,-0.017,5,-45.525,16.444,21.300,81,66.861,3.209,3.783,82,1.033,-0.816,-0.069,83,0.648,-0.548,9.770
31046.75284,3,0.696,-0.009,9.801,4,-0.023,-0.010,-0.012,5,-44.869,16.744,21.300,81,66.934,3.227,3.679,82,0.212,-0.121,-0.226,83,0.630,-0.551,9.771
31046.79326,3,0.629,-0.208,9.579,4,-0.015,-0.024,-0.023,5,-44.813,16.613,21.000,81,67.065,3.082,3.675,82,0.067,0.517,0.029,83,0.629,-0.526,9.772
31046.83368,3,0.859,-0.450,9.670,4,-0.013,-0.010,0.004,5,-45.113,16.688,21.300,81,67.197,3.104,3.764,82,-0.015,0.322,-0.192,83,0.644,-0.530,9.771
31046.87411,3,0.838,-0.244,9.500,4,0.015,0.040,0.005,5,-44.944,16.781,21.113,81,67.266,3.114,3.817,82,0.206,0.082,-0.100,83,0.653,-0.532,9.770
31046.91453,3,0.672,-0.490,9.742,4,0.017,0.044,-0.007,5,-44.944,16.913,21.188,81,67.337,3.080,3.819,82,0.184,0.282,-0.271,83,0.654,-0.526,9.771
31046.95495,3,0.924,-0.136,9.603,4,-0.005,0.003,0.004,5,-44.944,17.100,21.300,81,67.397,3.032,3.717,82,0.036,0.028,-0.030,83,0.636,-0.518,9.772
31046.99537,3,0.541,-0.457,9.727,4,0.004,0.013,-0.004,5,-44.588,17.100,21.000,81,67.459,2.953,3.706,82,0.290,0.368,-0.170,83,0.634,-0.504,9.773
31047.03580,3,0.830,-0.203,9.689,4,-0.012,-0.008,0.001,5,-44.644,16.913,21.244,81,67.502,2.949,3.667,82,-0.087,0.047,-0.047,83,0.628,-0.504,9.774
31047.07622,3,0.677,-0.459,9.694,4,-0.017,-0.025,-0.002,5,-44.513,16.744,21.000,81,67.548,2.891,3.702,82,0.196,0.291,-0.085,83,0.634,-0.494,9.774
31047.11664,3,0.821,-0.253,9.559,4,0.010,0.010,0.001,5,-44.456,16.744,21.188,81,67.596,2.915,3.744,82,0.036,0.039,-0.079,83,0.641,-0.498,9.773
31047.15706,3,0.715,-0.323,9.734,4,0.021,0.051,-0.002,5,-44.213,17.025,21.113,81,67.640,2.890,3.797,82,0.171,0.240,-0.214,83,0.650,-0.493,9.773
31047.19749,3,0.708,-0.476,9.703,4,0.013,0.030,0.002,5,-44.288,16.913,20.813,81,67.675,2.791,3.689,82,0.084,0.154,-0.041,83,0.631,-0.477,9.775
31047.23791,3,0.725,-0.222,9.615,4,0.021,0.052,-0.003,5,-44.513,16.988,20.644,81,67.711,2.752,3.616,82,0.089,-0.006,-0.073,83,0.619,-0.470,9.776
31047.27833,3,0.586,-0.347,9.768,4,-0.009,0.001,-0.001,5,-44.813,17.100,20.400,81,67.753,2.683,3.549,82,0.117,0.236,-0.162,83,0.607,-0.458,9.777
31047.31876,3,0.749,-0.301,9.696,4,0.003,0.001,0.002,5,-45.113,17.025,20.344,81,67.788,2.646,3.507,82,-0.014,0.105,-0.010,83,0.600,-0.452,9.778
31047.35918,3,0.658,-0.416,9.636,4,-0.006,0.011,-0.005,5,-45.113,17.344,20.344,81,67.832,2.620,3.539,82,0.143,0.146,-0.082,83,0.606,-0.448,9.778
31047.39960,3,0.687,-0.114,9.550,4,0.009,0.006,0.006,5,-45.188,17.344,20.644,81,67.864,2.611,3.521,82,0.055,0.030,-0.142,83,0.603,-0.446,9.778
31047.44002,3,0.636,-0.390,9.785,4,-0.002,-0.012,-0.005,5,-45.244,17.025,20.888,81,67.895,2.571,3.511,82,0.086,0.325,-0.228,83,0.601,-0.439,9.778
31047.48045,3,0.790,-0.526,9.677,4,-0.005,-0.009,0.005,5,-45.488,16.781,21.300,81,67.927,2.545,3.491,82,0.038,0.045,0.006,83,0.598,-0.435,9.779
31047.52087,3,0.622,-0.124,9.667,4,0.004,0.011,-0.003,5,-45.656,16.744,21.544,81,67.972,2.563,3.533,82,0.185,-0.088,-0.101,83,0.605,-0.438,9.778
31047.56129,3,0.641,-0.428,9.665,4,-0.006,-0.012,-0.003,5,-45.656,16.781,21.713,81,68.042,2.502,3.516,82,0.020,0.303,-0.112,83,0.602,-0.427,9.779
31047.60171,3,0.780,-0.251,9.674,4,0.003,0.005,0.004,5,-45.244,16.913,21.713,81,68.096,2.504,3.529,82,0.037,-0.000,-0.114,83,0.604,-0.428,9.779
31047.64214,3,0.608,-0.320,9.698,4,-0.007,-0.017,0.000,5,-45.056,16.913,21.244,81,68.140,2.465,3.542,82,0.174,0.170,-0.105,83,0.606,-0.421,9.779
31047.68256,3,0.624,-0.301,9.686,4,0.006,0.010,0.000,5,-45.056,16.913,21.244,81,68.168,2.452,3.558,82,-0.001,0.099,-0.081,83,0.609,-0.419,9.779
31047.72298,3,0.811,-0.344,9.634,4,-0.002,-0.006,0.000,5,-45.244,16.781,21.244,81,68.207,2.425,3.549,82,0.017,0.113,-0.093,83,0.607,-0.414,9.779
31047.76341,3,0.641,-0.294,9.662,4,0.022,0.042,0.002,5,-45.525,16.613,21.244,81,68.248,2.418,3.595,82,0.196,0.069,-0.145,83,0.615,-0.413,9.779
31047.80383,3,0.584,-0.296,9.727,4,-0.017,-0.019,-0.002,5,-45.244,16.613,21.488,81,68.295,2.382,3.562,82,0.031,0.113,-0.117,83,0.610,-0.407,9.779
31047.84425,3,0.826,-0.366,9.639,4,0.008,0.006,0.001,5,-44.869,16.613,21.488,81,68.343,2.362,3.561,82,-0.026,0.108,-0.052,83,0.610,-0.404,9.779
31047.88467,3,0.598,-0.299,9.686,4,-0.002,-0.004,-0.001,5,-44.456,16.744,21.113,81,68.377,2.355,3.601,82,0.210,0.036,-0.140,83,0.616,-0.402,9.779
31047.92510,3,0.627,-0.306,9.696,4,0.001,0.002,0.000,5,-44.156,17.100,21.113,81,68.404,2.333,3.587,82,-0.016,0.100,-0.093,83,0.614,-0.398,9.779
31047.96552,3,0.730,-0.282,9.672,4,-0.001,-0.006,-0.001,5,-44.344,17.025,21.000,81,68.402,2.315,3.593,82,0.012,0.090,-0.083,83,0.615,-0.396,9.779
31048.00594,3,0.667,-0.418,9.694,4,0.001,0.003,0.001,5,-44.513,16.913,20.888,81,68.407,2.296,3.613,82,0.112,0.110,-0.107,83,0.618,-0.392,9.779
31048.04637,3,0.675,-0.205,9.672,4,-0.001,-0.002,0.001,5,-45.056,16.913,21.113,81,68.421,2.299,3.615,82,0.048,-0.025,-0.085,83,0.619,-0.393,9.779
31048.08679,3,0.639,-0.349,9.686,4,0.001,0.001,-0.002,5,-45.356,16.781,20.813,81,68.461,2.266,3.627,82,0.054,0.182,-0.107,83,0.621,-0.387,9.779
31048.12721,3,0.689,-0.327,9.665,4,-0.002,-0.005,0.002,5,-45.844,17.213,21.113,81,68.497,2.258,3.630,82,0.018,0.037,-0.093,83,0.621,-0.386,9.779
31048.16763,3,0.730,-0.315,9.665,4,0.003,0.004,-0.001,5,-45.525,16.988,21.000,81,68.524,2.248,3.644,82,0.065,0.057,-0.114,83,0.624,-0.384,9.779
31048.20806,3,0.600,-0.320,9.682,4,-0.001,-0.003,0.000,5,-45.356,16.988,21.188,81,68.546,2.234,3.656,82,0.104,0.067,-0.114,83,0.626,-0.382,9.779
31048.24848,3,0.708,-0.296,9.667,4,-0.001,-0.005,-0.002,5,-45.488,16.744,21.300,81,68.570,2.221,3.649,82,-0.024,0.059,-0.097,83,0.624,-0.379,9.779
31048.28890,3,0.703,-0.356,9.686,4,-0.000,-0.002,-0.001,5,-45.244,16.500,21.000,81,68.602,2.209,3.669,82,0.080,0.081,-0.112,83,0.628,-0.377,9.779
31048.32932,3,0.634,-0.301,9.682,4,0.001,0.005,0.001,5,-45.113,16.688,21.188,81,68.640,2.203,3.674,82,0.074,0.020,-0.093,83,0.629,-0.376,9.779
31048.36975,3,0.682,-0.303,9.672,4,-0.002,-0.004,0.001,5,-45.413,16.369,20.888,81,68.677,2.187,3.673,82,0.005,0.073,-0.097,83,0.629,-0.374,9.779
31048.41017,3,0.665,-0.323,9.684,4,0.001,-0.001,0.001,5,-45.113,16.500,20.700,81,68.717,2.176,3.683,82,0.052,0.069,-0.107,83,0.630,-0.372,9.779
31048.45059,3,0.667,-0.354,9.658,4,-0.000,-0.003,0.000,5,-44.944,16.688,20.400,81,68.754,2.165,3.685,82,0.034,0.047,-0.095,83,0.631,-0.370,9.779
31048.49102,3,0.672,-0.270,9.703,4,0.001,0.004,0.000,5,-45.188,16.500,20.400,81,68.773,2.162,3.693,82,0.035,0.015,-0.121,83,0.632,-0.369,9.779
31048.53144,3,0.651,-0.335,9.667,4,-0.000,-0.004,-0.002,5,-44.869,16.781,20.813,81,68.804,2.141,3.694,82,0.040,0.096,-0.076,83,0.632,-0.366,9.779
31048.57186,3,0.708,-0.315,9.667,4,-0.000,0.003,0.000,5,-45.056,16.988,20.700,81,68.822,2.136,3.699,82,0.018,0.030,-0.112,83,0.633,-0.365,9.779
31048.61228,3,0.653,-0.323,9.674,4,0.001,0.001,0.000,5,-45.188,17.213,20.925,81,68.828,2.123,3.707,82,0.074,0.048,-0.112,83,0.634,-0.363,9.779
31048.65271,3,0.648,-0.323,9.667,4,-0.000,0.001,0.001,5,-45.413,17.025,20.700,81,68.830,2.115,3.710,82,0.018,0.038,-0.105,83,0.635,-0.361,9.779
31048.69313,3,0.713,-0.294,9.677,4,0.001,0.004,-0.001,5,-45.525,16.913,20.400,81,68.839,2.105,3.712,82,0.013,0.037,-0.112,83,0.635,-0.360,9.779
31048.73355,3,0.665,-0.351,9.672,4,-0.000,-0.002,-0.002,5,-45.188,16.688,20.513,81,68.857,2.093,3.726,82,0.075,0.063,-0.102,83,0.638,-0.357,9.779
31048.77397,3,0.670,-0.280,9.672,4,0.003,-0.001,-0.001,5,-45.056,16.369,20.400,81,68.880,2.089,3.723,82,0.028,0.006,-0.107,83,0.637,-0.357,9.779
31048.81440,3,0.675,-0.320,9.660,4,0.001,-0.002,-0.001,5,-44.644,16.369,20.700,81,68.912,2.073,3.730,82,0.032,0.074,-0.107,83,0.638,-0.354,9.779
31048.85482,3,0.667,-0.330,9.674,4,-0.000,-0.001,0.000,5,-44.644,16.444,20.813,81,68.943,2.065,3.736,82,0.036,0.033,-0.119,83,0.639,-0.353,9.779
31048.89524,3,0.696,-0.311,9.672,4,-0.000,-0.003,0.000,5,-44.869,16.500,20.888,81,68.962,2.061,3.739,82,0.027,0.022,-0.105,83,0.640,-0.352,9.779
31048.93567,3,0.646,-0.311,9.662,4,-0.000,0.003,0.001,5,-44.813,16.781,21.244,81,68.989,2.049,3.748,82,0.055,0.039,-0.107,83,0.641,-0.350,9.779
31048.97609,3,0.672,-0.308,9.684,4,0.001,-0.001,0.001,5,-44.944,16.913,21.244,81,69.000,2.044,3.746,82,0.005,0.038,-0.118,83,0.641,-0.349,9.779
31049.01651,3,0.684,-0.313,9.674,4,0.002,0.001,0.001,5,-45.188,17.025,21.413,81,68.999,2.036,3.753,82,0.030,0.040,-0.095,83,0.642,-0.348,9.779
31049.05693,3,0.639,-0.330,9.698,4,0.002,0.002,0.001,5,-45.244,16.988,21.544,81,69.002,2.025,3.753,82,0.042,0.033,-0.106,83,0.642,-0.346,9.779
31049.09736,3,0.684,-0.308,9.667,4,-0.000,-0.001,-0.004,5,-45.356,16.688,21.300,81,69.007,2.022,3.753,82,-0.003,0.015,-0.082,83,0.642,-0.345,9.780
31049.13778,3,0.416,-0.236,9.622,4,0.013,-0.013,-0.013,5,-45.113,16.744,21.000,81,69.022,2.012,3.759,82,0.041,0.036,-0.112,83,0.643,-0.344,9.780
31049.17820,3,1.812,-0.428,9.595,4,-0.095,-0.105,0.038,5,-44.869,16.444,20.813,81,69.049,1.984,3.728,82,-0.222,0.103,-0.158,83,0.638,-0.339,9.780
31049.21863,3,-0.026,-0.529,9.682,4,0.046,0.094,-0.039,5,-44.944,16.688,20.888,81,69.038,2.014,3.978,82,1.131,-0.084,-0.182,83,0.681,-0.344,9.777
31049.25905,3,0.119,0.416,9.409,4,-0.055,-0.112,0.031,5,-44.869,16.500,21.000,81,69.082,1.989,3.749,82,-0.667,-0.189,-0.098,83,0.641,-0.340,9.780
31049.29947,3,1.654,-0.754,9.689,4,0.001,0.058,-0.003,5,-45.113,16.613,21.113,81,69.079,1.958,3.796,82,-0.530,0.750,-0.370,83,0.649,-0.334,9.779
31049.33989,3,0.842,-0.308,9.612,4,0.003,-0.037,-0.004,5,-45.113,16.744,21.488,81,69.099,2.033,3.971,82,0.975,-0.407,-0.088,83,0.679,-0.347,9.777
31049.38032,3,-0.112,0.187,9.782,4,-0.022,-0.031,0.009,5,-44.813,16.688,21.188,81,69.098,1.999,3.928,82,0.170,0.033,-0.166,83,0.672,-0.341,9.778
31049.42074,3,0.902,-0.747,9.722,4,-0.018,-0.049,-0.007,5,-44.944,17.025,20.925,81,69.130,1.890,3.799,82,-0.762,0.510,0.002,83,0.650,-0.323,9.780
31049.46116,3,0.976,-0.177,9.555,4,0.006,0.052,0.011,5,-44.869,17.025,20.925,81,69.112,2.007,3.915,82,0.232,-0.404,-0.056,83,0.670,-0.343,9.778
31049.50158,3,0.162,-0.344,9.205,4,-0.020,0.171,-0.011,5,-44.944,17.025,20.813,81,69.104,1.966,3.914,82,0.307,0.159,-0.223,83,0.670,-0.336,9.778
31049.54201,3,1.199,-0.330,10.285,4,0.024,-0.008,-0.004,5,-45.113,17.100,21.188,81,69.119,1.975,3.862,82,-0.499,-0.007,-0.573,83,0.661,-0.337,9.779
31049.58243,3,0.344,-0.387,8.875,4,0.018,0.023,0.006,5,-45.244,17.100,21.300,81,69.087,1.999,3.965,82,0.521,0.011,0.508,83,0.678,-0.341,9.777
31049.62285,3,0.730,-0.359,10.118,4,0.009,0.012,-0.008,5,-45.244,17.025,21.488,81,69.095,1.966,3.933,82,-0.329,-0.051,-0.903,83,0.673,-0.336,9.778
31049.66328,3,0.670,-0.160,9.483,4,-0.012,-0.045,0.004,5,-45.113,16.781,21.544,81,69.080,1.989,4.039,82,0.039,-0.019,0.342,83,0.691,-0.339,9.776
31049.70370,3,0.706,-0.600,9.742,4,0.010,0.039,0.000,5,-44.869,16.744,21.188,81,69.093,1.945,3.966,82,-0.008,0.172,-0.295,83,0.678,-0.332,9.778
31049.74412,3,0.708,-0.004,9.569,4,-0.011,-0.050,-0.002,5,-44.588,16.500,21.113,81,69.090,2.023,4.014,82,0.019,-0.255,-0.034,83,0.687,-0.345,9.776
31049.78454,3,0.679,-0.526,9.799,4,0.008,0.037,0.001,5,-44.288,16.444,21.000,81,69.110,1.968,4.006,82,0.023,0.332,-0.208,83,0.685,-0.336,9.777
31049.82497,3,0.782,-0.275,9.567,4,-0.006,-0.022,0.002,5,-44.044,16.744,21.188,81,69.115,2.021,4.024,82,-0.009,-0.181,0.023,83,0.688,-0.345,9.776
31049.86539,3,0.605,-0.306,9.713,4,0.005,0.018,0.000,5,-44.513,16.500,21.300,81,69.117,2.013,4.058,82,0.088,0.069,-0.209,83,0.694,-0.344,9.776
31049.90581,3,0.651,-0.423,9.797,4,-0.000,-0.009,0.000,5,-44.588,16.500,21.413,81,69.122,1.998,4.014,82,-0.082,0.035,-0.064,83,0.687,-0.341,9.777
31049.94623,3,0.943,-0.227,9.662,4,-0.008,-0.005,0.000,5,-45.113,16.369,21.488,81,69.130,2.025,4.031,82,-0.039,-0.077,0.021,83,0.690,-0.346,9.776
31049.98666,3,0.742,-0.299,9.025,4,-0.158,0.014,0.018,5,-45.356,16.313,21.713,81,69.149,2.020,4.170,82,0.230,0.118,-0.113,83,0.713,-0.345,9.775
31050.02708,3,1.084,-0.428,9.528,4,0.059,0.341,-0.010,5,-44.813,16.369,21.713,81,69.166,2.006,4.468,82,-0.022,0.043,-0.746,83,0.764,-0.342,9.771
31050.06750,3,0.157,-0.057,9.823,4,0.128,-0.693,0.012,5,-44.588,16.500,21.600,81,69.207,1.999,4.170,82,0.371,-0.087,-0.247,83,0.713,-0.341,9.775
31050.10793,3,1.029,-0.569,9.095,4,-0.034,0.278,-0.006,5,-44.513,16.613,21.188,81,69.230,1.944,3.983,82,-0.524,0.275,0.046,83,0.681,-0.332,9.777
