timestamp,accel,accelX,accelY,accelZ,gyro,gyroX,gyroY,gyroZ,magno,magnoX,magnoY,magnoZ,ori,oriX,oriY,oriZ,lacc,laccX,laccY,laccZ,gravity,gravityX,gravityY,gravityZ
15054.75050,3,0.950,-0.323,8.434,4,-0.023,0.030,0.002
15054.79092,3,0.627,-0.191,10.716,4,-0.004,-0.012,0.002,5,-33.488,7.313,9.413
15054.83134,3,0.912,-0.306,8.879,4,0.021,-0.018,-0.001,5,-33.544,7.313,9.356,81,77.528,1.022,3.351,82,0.054,-0.016,0.928,83,0.573,-0.175,9.788
15054.87176,3,0.672,-0.291,10.252,4,0.019,-0.009,0.001,5,-33.713,7.256,9.356,81,77.530,1.021,3.336,82,0.341,-0.132,-0.910,83,0.571,-0.174,9.788
15054.91219,3,0.809,-0.251,9.380,4,-0.001,-0.028,0.002,5,-34.069,7.369,9.169,81,77.527,1.015,3.355,82,0.098,-0.118,0.464,83,0.574,-0.173,9.788
15054.95261,3,0.852,-0.282,9.698,4,-0.004,0.022,0.003,5,-34.256,7.613,9.244,81,77.529,1.010,3.362,82,0.234,-0.078,-0.408,83,0.575,-0.173,9.788
15054.99303,3,0.749,-0.246,9.797,4,-0.002,0.000,-0.001,5,-34.556,7.688,9.169,81,77.526,1.011,3.361,82,0.277,-0.109,-0.090,83,0.575,-0.173,9.788
15055.03345,3,0.931,-0.272,9.442,4,-0.008,0.015,-0.001,5,-34.913,7.988,9.469,81,77.521,1.015,3.375,82,0.172,-0.072,0.009,83,0.577,-0.174,9.788
15055.07387,3,0.711,-0.239,9.900,4,-0.006,0.005,-0.001,5,-34.856,8.044,9.469,81,77.519,1.023,3.369,82,0.355,-0.097,-0.346,83,0.576,-0.175,9.788
15055.11430,3,0.854,-0.299,9.447,4,-0.000,-0.002,-0.001,5,-34.988,8.156,9.544,81,77.512,1.019,3.377,82,0.133,-0.065,0.112,83,0.578,-0.174,9.788
15055.15472,3,0.814,-0.258,9.866,4,0.004,0.004,0.002,5,-35.156,8.156,9.844,81,77.505,1.028,3.386,82,0.275,-0.123,-0.341,83,0.579,-0.176,9.788
15055.19514,3,0.720,-0.277,9.552,4,0.004,-0.011,0.001,5,-35.044,7.988,9.544,81,77.497,1.027,3.397,82,0.233,-0.082,0.078,83,0.581,-0.176,9.788
15055.23556,3,0.902,-0.260,9.751,4,0.001,0.002,0.001,5,-35.344,7.913,9.413,81,77.491,1.033,3.398,82,0.139,-0.101,-0.236,83,0.581,-0.176,9.788
15055.27598,3,0.732,-0.263,9.641,4,0.002,-0.002,-0.001,5,-35.156,7.856,9.113,81,77.487,1.039,3.428,82,0.315,-0.082,-0.036,83,0.587,-0.177,9.787
15055.31641,3,0.845,-0.268,9.665,4,-0.002,0.001,-0.001,5,-34.988,7.988,8.625,81,77.483,1.041,3.432,82,0.145,-0.085,-0.146,83,0.587,-0.178,9.787
15055.35683,3,0.840,-0.268,9.722,4,0.001,0.005,0.003,5,-34.688,7.856,8.513,81,77.477,1.047,3.445,82,0.255,-0.089,-0.122,83,0.590,-0.179,9.787
15055.39725,3,0.754,-0.280,9.603,4,-0.000,-0.004,0.001,5,-34.425,7.688,8.813,81,77.471,1.053,3.463,82,0.247,-0.088,-0.065,83,0.593,-0.180,9.787
15055.43767,3,0.878,-0.275,9.715,4,0.003,0.003,-0.001,5,-34.313,7.688,9.056,81,77.466,1.059,3.470,82,0.160,-0.099,-0.184,83,0.594,-0.181,9.787
15055.47810,3,0.744,-0.270,9.627,4,0.001,-0.003,0.002,5,-34.256,7.444,9.169,81,77.460,1.065,3.498,82,0.278,-0.093,-0.072,83,0.600,-0.182,9.787
15055.51852,3,0.852,-0.260,9.706,4,-0.001,-0.001,0.001,5,-34.856,7.556,9.244,81,77.456,1.066,3.502,82,0.144,-0.088,-0.160,83,0.600,-0.182,9.787
15055.55894,3,0.854,-0.268,9.641,4,-0.000,0.001,0.003,5,-35.213,7.444,9.244,81,77.460,1.073,3.530,82,0.246,-0.077,-0.080,83,0.606,-0.183,9.786
15055.59936,3,0.663,-0.227,9.670,4,-0.000,0.000,-0.004,5,-35.344,7.256,9.244,81,77.464,1.077,3.545,82,0.245,-0.085,-0.145,83,0.609,-0.183,9.786
15055.63978,3,0.976,-0.325,9.706,4,-0.000,-0.001,0.001,5,-35.513,7.444,9.169,81,77.481,1.079,3.546,82,0.054,-0.043,-0.116,83,0.609,-0.184,9.786
15055.68021,3,0.735,-0.210,9.648,4,0.001,0.005,0.001,5,-35.513,7.688,9.356,81,77.494,1.098,3.595,82,0.358,-0.138,-0.079,83,0.618,-0.187,9.785
15055.72063,3,0.782,-0.330,9.703,4,-0.001,-0.004,-0.002,5,-35.344,7.988,9.413,81,77.496,1.094,3.593,82,0.117,-0.024,-0.137,83,0.618,-0.186,9.785
15055.76105,3,0.917,-0.210,9.667,4,0.007,0.008,0.002,5,-35.456,8.044,9.413,81,77.488,1.110,3.616,82,0.160,-0.142,-0.082,83,0.622,-0.188,9.785
15055.80147,3,0.665,-0.296,9.698,4,-0.004,-0.005,0.001,5,-35.344,7.913,9.713,81,77.477,1.106,3.641,82,0.290,-0.022,-0.118,83,0.627,-0.188,9.785
15055.84189,3,0.919,-0.248,9.646,4,0.002,0.002,-0.002,5,-35.213,7.688,10.013,81,77.470,1.121,3.644,82,0.037,-0.106,-0.087,83,0.628,-0.190,9.785
15055.88232,3,0.766,-0.277,9.694,4,0.002,0.002,0.001,5,-35.513,7.444,9.656,81,77.469,1.122,3.673,82,0.286,-0.058,-0.138,83,0.633,-0.190,9.784
15055.92274,3,0.799,-0.280,9.682,4,-0.000,-0.003,0.002,5,-35.456,7.556,9.469,81,77.475,1.130,3.685,82,0.131,-0.086,-0.090,83,0.635,-0.191,9.784
15055.96316,3,0.900,-0.227,9.667,4,-0.001,-0.001,0.001,5,-35.513,7.313,9.244,81,77.486,1.141,3.706,82,0.160,-0.088,-0.102,83,0.639,-0.192,9.784
15056.00358,3,0.665,-0.318,9.667,4,0.004,0.004,0.001,5,-35.344,7.444,9.056,81,77.499,1.142,3.733,82,0.255,-0.035,-0.116,83,0.645,-0.192,9.784
15056.04401,3,0.921,-0.217,9.662,4,-0.004,-0.007,0.001,5,-34.913,7.613,9.413,81,77.508,1.155,3.730,82,0.021,-0.124,-0.116,83,0.644,-0.194,9.784
15056.08443,3,0.826,-0.318,9.665,4,0.001,0.008,0.001,5,-34.988,7.556,9.656,81,77.517,1.157,3.769,82,0.269,-0.023,-0.121,83,0.652,-0.194,9.783
15056.12485,3,0.687,-0.244,9.662,4,-0.000,-0.002,0.001,5,-34.913,7.988,10.013,81,77.515,1.169,3.777,82,0.172,-0.122,-0.118,83,0.654,-0.196,9.783
15056.16527,3,1.017,-0.291,9.684,4,-0.002,0.001,0.001,5,-34.913,8.044,10.088,81,77.506,1.173,3.782,82,0.033,-0.048,-0.121,83,0.654,-0.196,9.783
15056.20569,3,0.617,-0.263,9.670,4,0.003,0.001,-0.003,5,-34.856,8.044,9.788,81,77.492,1.190,3.834,82,0.352,-0.092,-0.098,83,0.665,-0.199,9.782
15056.24612,3,0.933,-0.263,9.674,4,-0.001,-0.002,0.001,5,-34.856,8.044,9.788,81,77.471,1.189,3.818,82,-0.045,-0.065,-0.112,83,0.662,-0.198,9.782
15056.28654,3,0.799,-0.284,9.660,4,0.003,0.005,-0.001,5,-34.725,7.744,9.413,81,77.453,1.199,3.859,82,0.263,-0.063,-0.108,83,0.670,-0.200,9.782
15056.32696,3,0.701,-0.253,9.694,4,-0.004,-0.007,-0.002,5,-34.725,7.688,9.244,81,77.448,1.206,3.866,82,0.128,-0.084,-0.122,83,0.671,-0.200,9.782
15056.36738,3,0.969,-0.284,9.670,4,0.004,0.005,0.004,5,-34.856,7.856,9.544,81,77.447,1.210,3.872,82,0.029,-0.052,-0.087,83,0.672,-0.201,9.782
15056.40781,3,0.648,-0.239,9.677,4,0.001,-0.001,0.001,5,-34.913,8.044,9.356,81,77.439,1.220,3.911,82,0.289,-0.082,-0.111,83,0.680,-0.202,9.781
15056.44823,3,0.912,-0.291,9.672,4,-0.001,0.000,-0.002,5,-34.988,8.044,9.244,81,77.427,1.219,3.903,82,-0.030,-0.037,-0.104,83,0.678,-0.202,9.781
15056.48865,3,0.849,-0.260,9.662,4,0.001,0.004,0.003,5,-34.988,8.156,9.244,81,77.413,1.232,3.939,82,0.227,-0.088,-0.109,83,0.685,-0.203,9.781
15056.52907,3,0.663,-0.248,9.660,4,-0.007,-0.009,-0.001,5,-34.725,8.044,8.925,81,77.390,1.235,3.955,82,0.161,-0.057,-0.118,83,0.688,-0.203,9.780
15056.56949,3,1.046,-0.301,9.682,4,0.010,0.011,0.002,5,-34.388,7.856,9.056,81,77.378,1.235,3.949,82,-0.024,-0.045,-0.120,83,0.687,-0.203,9.780
15056.60992,3,0.579,-0.241,9.677,4,-0.004,-0.001,0.002,5,-34.613,8.044,9.169,81,77.360,1.248,4.000,82,0.349,-0.096,-0.098,83,0.697,-0.205,9.780
15056.65034,3,0.948,-0.294,9.674,4,-0.002,-0.005,-0.001,5,-34.725,7.913,9.169,81,77.341,1.255,3.982,82,-0.114,-0.035,-0.103,83,0.693,-0.206,9.780
15056.69076,3,0.787,-0.227,9.658,4,0.004,0.008,0.001,5,-34.913,7.688,9.656,81,77.330,1.268,4.023,82,0.247,-0.087,-0.105,83,0.701,-0.207,9.779
15056.73118,3,0.711,-0.311,9.696,4,-0.000,-0.004,0.002,5,-35.156,7.444,9.656,81,77.330,1.262,4.023,82,0.086,-0.021,-0.121,83,0.701,-0.206,9.779
15056.77160,3,0.981,-0.217,9.636,4,0.001,0.003,0.003,5,-34.913,7.144,9.788,81,77.335,1.280,4.026,82,0.010,-0.102,-0.083,83,0.701,-0.209,9.779
15056.81203,3,0.620,-0.301,9.677,4,-0.001,-0.001,-0.001,5,-34.725,7.256,10.013,81,77.372,1.276,4.059,82,0.274,-0.009,-0.143,83,0.707,-0.208,9.779
15056.85245,3,0.924,-0.236,9.667,4,-0.001,-0.002,0.001,5,-34.613,7.444,9.544,81,77.388,1.286,4.043,82,-0.084,-0.091,-0.102,83,0.704,-0.210,9.779
15056.89287,3,0.770,-0.291,9.703,4,-0.002,0.000,0.001,5,-34.425,7.988,9.469,81,77.399,1.285,4.077,82,0.214,-0.027,-0.112,83,0.710,-0.209,9.779
15056.93329,3,0.715,-0.198,9.571,4,-0.009,0.009,-0.001,5,-34.688,7.988,9.356,81,77.385,1.301,4.085,82,0.059,-0.080,-0.075,83,0.711,-0.211,9.779
15056.97372,3,0.964,-0.323,9.718,4,0.010,0.008,0.001,5,-34.688,7.988,9.469,81,77.374,1.242,4.060,82,0.008,0.003,-0.208,83,0.707,-0.201,9.779
15057.01414,3,0.608,-0.277,9.770,4,-0.030,-0.024,-0.002,5,-35.044,7.988,9.713,81,77.361,1.289,4.116,82,0.247,-0.114,-0.060,83,0.717,-0.208,9.778
15057.05456,3,0.917,-0.186,9.418,4,0.017,0.001,-0.002,5,-35.344,7.913,9.713,81,77.345,1.323,4.108,82,-0.107,-0.062,-0.008,83,0.715,-0.215,9.778
15057.09498,3,0.802,-0.404,9.868,4,0.009,0.012,0.001,5,-35.288,7.744,9.788,81,77.343,1.305,4.113,82,0.201,0.025,-0.360,83,0.716,-0.211,9.778
15057.13540,3,0.739,-0.184,9.600,4,-0.018,-0.017,0.001,5,-35.569,7.556,9.244,81,77.342,1.350,4.137,82,0.082,-0.185,0.090,83,0.720,-0.218,9.778
15057.17583,3,0.931,-0.311,9.634,4,0.002,0.006,0.003,5,-35.456,7.444,9.244,81,77.354,1.340,4.134,82,0.020,0.033,-0.178,83,0.719,-0.217,9.778
15057.21625,3,0.660,-0.234,9.734,4,0.002,-0.003,-0.002,5,-35.156,7.556,9.244,81,77.368,1.349,4.157,82,0.208,-0.093,-0.143,83,0.723,-0.218,9.778
15057.25667,3,0.926,-0.318,9.634,4,-0.005,-0.006,-0.001,5,-35.288,7.313,9.244,81,77.374,1.351,4.150,82,-0.061,-0.015,-0.044,83,0.721,-0.219,9.778
15057.29709,3,0.756,-0.229,9.701,4,0.007,0.006,-0.001,5,-35.044,7.556,9.844,81,77.391,1.364,4.178,82,0.200,-0.098,-0.143,83,0.726,-0.220,9.777
15057.33751,3,0.794,-0.294,9.713,4,-0.007,-0.007,-0.002,5,-35.044,7.556,9.713,81,77.401,1.357,4.176,82,0.030,-0.010,-0.076,83,0.726,-0.219,9.777
15057.37794,3,0.936,-0.325,9.416,4,0.108,0.074,-0.005,5,-35.044,7.256,9.788,81,77.416,1.374,4.195,82,0.065,-0.072,-0.064,83,0.729,-0.222,9.777
15057.41836,3,0.665,-0.155,10.122,4,-0.030,-0.020,0.004,5,-34.725,7.369,9.544,81,77.440,1.280,4.150,82,0.215,-0.119,-0.362,83,0.721,-0.206,9.778
15057.45878,3,0.888,-0.359,9.411,4,-0.047,-0.046,-0.001,5,-34.725,7.556,9.113,81,77.462,1.210,4.121,82,-0.051,0.039,0.343,83,0.716,-0.194,9.779
15057.49920,3,0.646,-0.145,9.797,4,0.017,0.012,0.001,5,-34.856,7.613,8.813,81,77.458,1.396,4.218,82,0.155,-0.133,-0.366,83,0.733,-0.226,9.777
15057.53963,3,1.003,-0.387,9.418,4,0.042,0.044,-0.002,5,-34.725,8.044,8.588,81,77.459,1.315,4.169,82,-0.078,0.068,0.019,83,0.724,-0.213,9.778
15057.58005,3,0.644,-0.150,10.000,4,-0.004,0.001,-0.002,5,-34.725,8.156,8.756,81,77.450,1.294,4.158,82,0.281,-0.178,-0.360,83,0.722,-0.209,9.778
15057.62047,3,0.833,-0.315,9.373,4,0.026,0.000,0.003,5,-34.425,8.213,8.888,81,77.424,1.248,4.139,82,-0.074,0.052,0.222,83,0.718,-0.202,9.778
15057.66089,3,0.737,-0.150,9.861,4,0.026,0.008,-0.003,5,-34.425,8.344,9.244,81,77.399,1.222,4.127,82,0.117,-0.118,-0.405,83,0.716,-0.197,9.778
15057.70131,3,0.768,-0.325,9.605,4,0.009,-0.018,-0.002,5,-34.556,8.044,9.169,81,77.374,1.156,4.104,82,0.025,0.036,0.082,83,0.712,-0.186,9.779
15057.74174,3,0.826,-0.186,9.701,4,0.025,0.008,0.002,5,-34.556,8.156,9.356,81,77.348,1.170,4.119,82,0.054,-0.137,-0.174,83,0.714,-0.188,9.779
15057.78216,3,0.732,-0.287,9.732,4,0.008,0.000,-0.003,5,-34.725,7.688,9.169,81,77.329,1.139,4.132,82,0.109,-0.003,-0.078,83,0.717,-0.183,9.779
15057.82258,3,0.814,-0.165,9.627,4,-0.006,-0.006,0.001,5,-34.688,7.444,9.056,81,77.324,1.152,4.128,82,0.016,-0.102,-0.047,83,0.716,-0.185,9.779
15057.86300,3,0.778,-0.282,9.665,4,0.022,0.008,-0.001,5,-34.988,7.313,9.169,81,77.336,1.137,4.145,82,0.095,0.018,-0.152,83,0.719,-0.183,9.779
15057.90342,3,0.754,-0.145,9.672,4,0.022,-0.012,-0.009,5,-35.044,7.256,9.113,81,77.358,1.140,4.146,82,0.060,-0.099,-0.114,83,0.719,-0.183,9.779
15057.94385,3,0.878,-0.277,9.713,4,0.002,0.006,-0.008,5,-34.856,7.556,9.356,81,77.396,1.082,4.161,82,0.033,0.028,-0.107,83,0.721,-0.174,9.779
15057.98427,3,0.715,-0.186,9.691,4,-0.009,0.005,0.002,5,-34.688,7.744,9.169,81,77.427,1.079,4.183,82,0.153,-0.104,-0.065,83,0.725,-0.173,9.778
15058.02469,3,0.804,-0.241,9.643,4,-0.011,-0.001,-0.005,5,-34.388,7.856,9.413,81,77.419,1.092,4.171,82,-0.007,-0.011,-0.087,83,0.722,-0.175,9.778
15058.06511,3,0.785,-0.167,9.662,4,-0.001,-0.004,0.001,5,-34.425,7.688,9.113,81,77.412,1.118,4.185,82,0.079,-0.061,-0.135,83,0.725,-0.180,9.778
15058.10553,3,0.787,-0.246,9.665,4,-0.011,-0.003,-0.005,5,-34.688,7.688,8.813,81,77.410,1.114,4.203,82,0.057,0.012,-0.116,83,0.728,-0.179,9.778
15058.14596,3,0.849,-0.145,9.627,4,0.005,0.002,-0.008,5,-34.556,7.444,9.113,81,77.418,1.128,4.218,82,0.057,-0.064,-0.113,83,0.730,-0.182,9.778
15058.18638,3,0.682,-0.186,9.710,4,-0.005,0.002,0.002,5,-34.688,7.744,8.756,81,77.446,1.108,4.235,82,0.116,0.033,-0.151,83,0.733,-0.178,9.778
15058.22680,3,0.823,0.323,9.593,4,-0.038,-0.033,-0.029,5,-34.725,7.688,8.888,81,77.446,1.085,4.219,82,-0.048,-0.011,-0.068,83,0.730,-0.175,9.778
15058.26722,3,0.742,0.249,9.739,4,-0.046,0.006,-0.013,5,-35.213,7.613,9.169,81,77.487,1.025,4.233,82,0.090,0.488,-0.185,83,0.733,-0.165,9.778
15058.30765,3,0.751,-0.301,9.468,4,-0.011,-0.004,-0.004,5,-35.288,7.613,9.244,81,77.540,0.955,4.254,82,0.005,0.404,-0.039,83,0.737,-0.155,9.778
15058.34807,3,0.931,-0.414,9.794,4,-0.005,0.016,-0.075,5,-35.044,7.369,9.544,81,77.562,0.998,4.250,82,0.015,-0.139,-0.310,83,0.736,-0.162,9.778
15058.38849,3,0.725,-0.284,9.643,4,-0.020,-0.008,-0.111,5,-34.988,7.444,9.844,81,77.683,1.063,4.283,82,0.190,-0.241,0.017,83,0.742,-0.173,9.777
15058.42891,3,0.737,-0.186,9.610,4,-0.004,-0.011,-0.080,5,-34.688,7.313,9.788,81,77.933,1.075,4.310,82,-0.021,-0.109,-0.134,83,0.746,-0.175,9.777
15058.46933,3,0.749,-0.248,9.756,4,-0.012,-0.003,-0.046,5,-34.856,7.313,9.413,81,78.139,1.059,4.320,82,-0.010,-0.014,-0.167,83,0.747,-0.172,9.777
15058.50976,3,0.708,0.019,9.636,4,0.004,0.009,0.007,5,-34.856,7.369,9.356,81,78.303,1.076,4.345,82,-0.002,-0.073,-0.020,83,0.751,-0.175,9.776
15058.55018,3,0.826,-0.133,9.694,4,0.003,-0.013,0.047,5,-34.856,7.013,9.169,81,78.321,1.052,4.339,82,-0.042,0.191,-0.140,83,0.750,-0.172,9.776
15058.59060,3,0.773,-0.323,9.610,4,0.007,0.014,0.037,5,-34.856,6.825,9.113,81,78.224,1.060,4.366,82,0.071,0.040,-0.082,83,0.755,-0.173,9.776
15058.63102,3,0.830,-0.251,9.672,4,0.003,0.013,0.013,5,-34.425,6.656,9.113,81,78.131,1.090,4.366,82,0.019,-0.145,-0.166,83,0.754,-0.178,9.776
15058.67144,3,0.840,-0.287,9.670,4,-0.008,-0.011,-0.006,5,-34.556,6.713,8.925,81,78.131,1.096,4.383,82,0.073,-0.072,-0.104,83,0.757,-0.179,9.776
15058.71187,3,0.811,-0.306,9.689,4,0.012,0.003,-0.009,5,-34.388,6.713,9.056,81,78.140,1.133,4.406,82,0.079,-0.102,-0.105,83,0.761,-0.185,9.775
15058.75229,3,0.811,-0.186,9.617,4,-0.002,-0.013,-0.012,5,-34.388,6.713,9.169,81,78.170,1.141,4.419,82,0.049,-0.119,-0.086,83,0.762,-0.187,9.775
15058.79271,3,0.770,-0.052,9.722,4,-0.014,0.012,0.012,5,-34.256,6.544,9.244,81,78.230,1.135,4.437,82,0.046,-0.000,-0.158,83,0.766,-0.186,9.775
15058.83313,3,0.809,-0.062,9.646,4,-0.004,-0.006,0.012,5,-34.425,6.544,9.244,81,78.264,1.110,4.445,82,0.003,0.130,-0.053,83,0.767,-0.182,9.775
15058.87355,3,0.869,-0.280,9.694,4,0.007,-0.009,-0.030,5,-34.425,6.656,9.356,81,78.263,1.094,4.463,82,0.039,0.118,-0.129,83,0.770,-0.180,9.775
15058.91398,3,0.811,-0.265,9.658,4,-0.011,-0.015,-0.036,5,-34.556,6.713,9.469,81,78.324,1.120,4.492,82,0.094,-0.096,-0.080,83,0.775,-0.184,9.774
15058.95440,3,0.804,-0.210,9.689,4,0.002,-0.006,-0.015,5,-34.725,6.713,9.656,81,78.411,1.137,4.509,82,0.034,-0.078,-0.116,83,0.777,-0.187,9.774
15058.99482,3,0.756,-0.464,9.615,4,-0.023,-0.009,-0.002,5,-34.688,6.713,10.013,81,78.473,1.144,4.528,82,0.024,-0.022,-0.085,83,0.780,-0.188,9.774
15059.03524,3,0.790,-0.462,9.751,4,-0.004,-0.003,-0.021,5,-34.556,6.825,9.788,81,78.503,1.219,4.537,82,-0.026,-0.263,-0.158,83,0.782,-0.201,9.773
15059.07567,3,0.885,-0.344,9.610,4,-0.008,0.001,-0.020,5,-34.613,7.013,9.788,81,78.536,1.298,4.558,82,0.006,-0.248,-0.022,83,0.785,-0.214,9.773
15059.11609,3,0.790,-0.291,9.773,4,0.004,0.011,-0.004,5,-34.556,7.144,9.469,81,78.571,1.302,4.579,82,0.097,-0.129,-0.163,83,0.788,-0.215,9.773
15059.15651,3,0.818,-0.332,9.583,4,-0.028,-0.009,0.025,5,-34.388,6.956,9.413,81,78.598,1.323,4.580,82,0.002,-0.072,0.000,83,0.788,-0.219,9.773
15059.19693,3,0.818,-0.222,9.773,4,0.016,0.002,0.020,5,-34.613,6.713,9.544,81,78.538,1.348,4.587,82,0.029,-0.109,-0.189,83,0.789,-0.223,9.772
15059.23735,3,0.806,-0.251,9.567,4,-0.017,-0.021,0.026,5,-34.688,6.488,9.844,81,78.492,1.359,4.610,82,0.025,0.003,0.001,83,0.793,-0.225,9.772
15059.27778,3,0.830,-0.361,9.698,4,0.003,-0.007,0.015,5,-34.913,6.244,10.013,81,78.455,1.374,4.601,82,0.015,-0.023,-0.205,83,0.791,-0.228,9.772
15059.31820,3,0.876,-0.378,9.581,4,-0.004,-0.008,0.008,5,-35.044,6.356,10.125,81,78.434,1.429,4.625,82,0.035,-0.124,-0.074,83,0.795,-0.238,9.772
15059.35862,3,0.828,-0.442,9.727,4,-0.020,-0.019,-0.007,5,-35.288,6.544,10.256,81,78.447,1.459,4.632,82,0.080,-0.135,-0.190,83,0.796,-0.243,9.771
15059.39904,3,0.878,-0.296,9.636,4,0.013,-0.005,-0.040,5,-35.213,6.413,10.125,81,78.470,1.524,4.652,82,0.029,-0.188,-0.044,83,0.799,-0.254,9.771
15059.43946,3,0.804,-0.411,9.715,4,-0.017,0.003,-0.021,5,-35.213,6.544,10.125,81,78.545,1.517,4.662,82,0.077,-0.043,-0.135,83,0.801,-0.253,9.771
15059.47989,3,0.806,-0.275,9.672,4,0.002,0.029,-0.007,5,-35.213,6.413,10.256,81,78.625,1.552,4.667,82,0.003,-0.152,-0.055,83,0.801,-0.259,9.770
15059.52031,3,0.909,-0.112,9.744,4,0.012,0.016,-0.016,5,-35.044,6.356,10.013,81,78.688,1.557,4.671,82,0.004,-0.015,-0.098,83,0.802,-0.260,9.770
15059.56073,3,0.830,-0.385,9.581,4,-0.005,-0.002,-0.024,5,-35.044,6.413,9.956,81,78.735,1.515,4.696,82,0.103,0.141,-0.026,83,0.806,-0.253,9.770
15059.60115,3,0.763,-0.315,9.744,4,0.013,-0.001,0.007,5,-34.556,6.713,9.656,81,78.800,1.523,4.695,82,0.024,-0.131,-0.189,83,0.806,-0.254,9.770
15059.64157,3,0.847,-0.042,9.682,4,-0.005,0.001,-0.003,5,-34.613,6.544,9.713,81,78.822,1.549,4.693,82,-0.042,-0.056,-0.026,83,0.805,-0.259,9.770
15059.68200,3,0.814,-0.141,9.660,4,0.013,0.018,-0.011,5,-34.556,6.413,10.256,81,78.819,1.504,4.698,82,0.041,0.209,-0.088,83,0.806,-0.251,9.770
15059.72242,3,0.833,-0.256,9.653,4,-0.015,-0.044,-0.008,5,-34.556,6.413,10.256,81,78.856,1.488,4.700,82,0.007,0.108,-0.110,83,0.807,-0.249,9.770
15059.76284,3,0.866,-0.440,9.670,4,-0.006,0.020,0.001,5,-34.688,6.188,10.613,81,78.872,1.503,4.729,82,0.021,-0.005,-0.117,83,0.812,-0.252,9.770
15059.80326,3,0.778,-0.193,9.703,4,0.009,-0.008,0.001,5,-34.613,6.113,10.388,81,78.891,1.545,4.714,82,0.057,-0.181,-0.100,83,0.809,-0.259,9.770
15059.84369,3,0.828,-0.347,9.610,4,-0.010,-0.032,0.005,5,-34.613,6.113,9.956,81,78.922,1.530,4.726,82,-0.033,0.063,-0.067,83,0.811,-0.256,9.770
15059.88411,3,0.897,-0.193,9.744,4,-0.009,-0.001,-0.008,5,-34.856,5.944,9.788,81,78.936,1.548,4.722,82,0.018,-0.088,-0.160,83,0.810,-0.259,9.770
15059.92453,3,0.811,-0.435,9.603,4,-0.008,-0.023,-0.019,5,-34.913,6.113,9.713,81,78.969,1.532,4.754,82,0.081,0.064,-0.025,83,0.816,-0.257,9.769
15059.96495,3,0.859,-0.131,9.782,4,-0.001,0.018,-0.016,5,-35.044,6.056,9.788,81,79.039,1.566,4.757,82,-0.005,-0.172,-0.166,83,0.816,-0.263,9.769
15060.00537,3,0.826,-0.277,9.655,4,0.003,-0.017,0.002,5,-34.913,5.644,10.125,81,79.092,1.528,4.770,82,0.041,0.125,0.013,83,0.818,-0.256,9.769
15060.04580,3,0.881,-0.363,9.643,4,0.005,0.036,0.002,5,-34.613,5.513,10.556,81,79.133,1.533,4.781,82,0.006,-0.020,-0.114,83,0.820,-0.257,9.769
15060.08622,3,0.842,-0.332,9.686,4,-0.002,0.002,0.007,5,-34.613,5.513,10.088,81,79.162,1.559,4.777,82,0.062,-0.101,-0.126,83,0.819,-0.262,9.769
15060.12664,3,0.838,-0.490,9.591,4,0.032,0.014,-0.004,5,-34.388,5.456,10.256,81,79.191,1.573,4.789,82,0.021,-0.068,-0.083,83,0.821,-0.264,9.769
15060.16706,3,0.854,-0.294,9.763,4,-0.021,-0.003,-0.022,5,-34.069,5.756,9.844,81,79.249,1.583,4.777,82,0.019,-0.224,-0.178,83,0.819,-0.266,9.769
15060.20748,3,0.816,-0.464,9.603,4,0.006,0.002,0.005,5,-34.313,5.944,9.469,81,79.308,1.611,4.798,82,0.031,-0.023,-0.005,83,0.823,-0.271,9.768
15060.24791,3,0.842,-0.280,9.730,4,0.013,0.000,0.003,5,-34.313,5.944,9.356,81,79.345,1.645,4.799,82,-0.007,-0.187,-0.165,83,0.823,-0.277,9.768
15060.28833,3,0.806,-0.102,9.615,4,-0.002,-0.003,-0.002,5,-33.844,6.244,9.544,81,79.347,1.623,4.798,82,0.020,-0.007,-0.038,83,0.822,-0.273,9.768
15060.32875,3,0.873,-0.109,9.696,4,-0.002,0.000,-0.001,5,-34.013,6.244,9.713,81,79.346,1.583,4.804,82,-0.017,0.164,-0.153,83,0.823,-0.266,9.768
15060.36917,3,0.818,-0.224,9.655,4,0.004,-0.002,-0.001,5,-33.788,6.113,9.469,81,79.357,1.562,4.817,82,0.047,0.154,-0.072,83,0.826,-0.263,9.768
15060.40959,3,0.828,-0.308,9.598,4,-0.005,-0.008,0.004,5,-34.256,5.869,9.844,81,79.353,1.564,4.816,82,-0.008,0.040,-0.113,83,0.825,-0.264,9.768
15060.45002,3,0.897,-0.385,9.684,4,0.018,0.005,-0.001,5,-34.725,5.644,9.788,81,79.366,1.582,4.826,82,0.001,-0.041,-0.170,83,0.827,-0.267,9.768
15060.49044,3,0.821,-0.191,9.720,4,-0.010,-0.018,-0.007,5,-34.913,5.756,9.844,81,79.403,1.601,4.834,82,0.069,-0.115,-0.084,83,0.828,-0.270,9.768
15060.53086,3,0.802,-0.165,9.674,4,-0.013,-0.009,0.008,5,-34.725,5.944,10.013,81,79.442,1.585,4.844,82,-0.009,0.076,-0.048,83,0.830,-0.267,9.768
15060.57128,3,0.921,-0.409,9.641,4,-0.012,-0.053,-0.039,5,-34.069,5.944,9.713,81,79.464,1.609,4.851,82,-0.029,0.107,-0.094,83,0.831,-0.272,9.768
15060.61170,3,0.907,-0.368,9.696,4,0.004,-0.027,-0.101,5,-34.313,5.588,9.788,81,79.505,1.630,4.867,82,0.087,-0.134,-0.126,83,0.834,-0.275,9.767
15060.65213,3,0.811,-0.109,9.600,4,-0.017,0.033,-0.102,5,-34.856,5.456,9.713,81,79.700,1.617,4.882,82,0.071,-0.095,-0.071,83,0.836,-0.273,9.767
15060.69255,3,0.814,-0.394,9.725,4,0.008,-0.019,-0.082,5,-34.988,5.325,9.956,81,79.986,1.604,4.898,82,-0.028,0.162,-0.167,83,0.839,-0.271,9.767
15060.73297,3,0.806,-0.416,9.559,4,-0.009,-0.037,-0.049,5,-35.213,5.288,10.125,81,80.257,1.644,4.927,82,-0.030,-0.116,-0.041,83,0.844,-0.278,9.766
15060.77339,3,0.914,-0.136,9.756,4,-0.000,0.005,-0.039,5,-35.569,5.644,10.088,81,80.401,1.655,4.928,82,-0.038,-0.136,-0.207,83,0.844,-0.280,9.766
15060.81381,3,0.830,-0.359,9.586,4,-0.009,-0.020,-0.027,5,-35.213,5.869,10.125,81,80.503,1.619,4.957,82,0.065,0.137,-0.010,83,0.849,-0.273,9.766
15060.85424,3,0.895,-0.282,9.713,4,0.016,0.005,-0.036,5,-35.344,6.056,10.125,81,80.563,1.644,4.966,82,-0.021,-0.081,-0.180,83,0.851,-0.278,9.766
15060.89466,3,0.840,-0.186,9.636,4,-0.010,-0.007,-0.027,5,-35.213,5.944,10.088,81,80.594,1.655,4.974,82,0.043,-0.002,-0.053,83,0.852,-0.280,9.766
15060.93508,3,0.859,-0.356,9.655,4,-0.004,-0.009,-0.028,5,-34.913,5.644,10.125,81,80.643,1.623,4.983,82,-0.013,0.088,-0.130,83,0.853,-0.274,9.766
15060.97550,3,0.806,-0.253,9.715,4,-0.027,0.011,-0.002,5,-34.725,5.456,10.444,81,80.709,1.658,4.990,82,0.005,-0.076,-0.110,83,0.854,-0.280,9.765
15061.01593,3,0.854,-0.270,9.672,4,-0.009,-0.002,0.004,5,-34.688,5.213,10.556,81,80.731,1.665,4.988,82,-0.048,0.029,-0.050,83,0.854,-0.282,9.765
15061.05635,3,0.909,-0.220,9.689,4,0.008,0.020,-0.014,5,-34.988,5.156,10.613,81,80.740,1.680,4.992,82,-0.001,0.014,-0.093,83,0.855,-0.284,9.765
15061.09677,3,0.845,-0.308,9.629,4,-0.007,-0.006,-0.043,5,-35.044,5.156,10.313,81,80.783,1.682,5.005,82,0.052,0.065,-0.076,83,0.857,-0.285,9.765
15061.13719,3,0.912,-0.155,9.665,4,-0.000,0.010,-0.041,5,-35.213,5.044,9.956,81,80.895,1.693,5.014,82,-0.014,-0.021,-0.136,83,0.859,-0.287,9.765
15061.17761,3,0.871,-0.380,9.627,4,-0.015,0.008,-0.028,5,-35.288,4.913,10.088,81,80.992,1.671,5.029,82,0.051,0.128,-0.100,83,0.861,-0.283,9.765
15061.21804,3,0.785,-0.253,9.749,4,-0.015,-0.006,-0.010,5,-35.288,5.044,10.256,81,81.106,1.698,5.049,82,0.007,-0.092,-0.137,83,0.864,-0.288,9.764
15061.25846,3,0.838,-0.416,9.550,4,-0.016,-0.007,-0.003,5,-35.044,4.988,10.669,81,81.166,1.719,5.039,82,-0.078,0.038,-0.015,83,0.863,-0.291,9.764
15061.29888,3,0.814,-0.351,9.744,4,0.019,0.018,-0.013,5,-35.044,5.213,10.556,81,81.181,1.749,5.045,82,-0.026,-0.120,-0.214,83,0.864,-0.296,9.764
15061.33930,3,0.849,-0.177,9.607,4,-0.014,0.021,0.044,5,-35.213,5.288,10.744,81,81.224,1.748,5.038,82,-0.048,-0.055,-0.020,83,0.862,-0.296,9.764
15061.37972,3,0.849,-0.392,9.722,4,0.005,-0.016,0.038,5,-34.913,5.213,10.556,81,81.183,1.754,5.048,82,-0.015,0.120,-0.157,83,0.864,-0.297,9.764
15061.42015,3,0.912,-0.727,9.555,4,-0.028,-0.037,0.019,5,-34.988,5.213,10.388,81,81.092,1.828,5.047,82,-0.015,-0.082,-0.042,83,0.864,-0.310,9.764
15061.46057,3,0.838,-0.502,9.737,4,-0.015,0.017,0.013,5,-35.044,4.856,10.744,81,81.015,1.921,5.065,82,0.045,-0.401,-0.208,83,0.867,-0.326,9.763
15061.50099,3,0.912,-0.299,9.655,4,0.007,-0.009,0.002,5,-34.725,4.856,10.556,81,81.020,1.974,5.054,82,-0.027,-0.167,-0.026,83,0.865,-0.335,9.763
15061.54141,3,0.890,-0.593,9.737,4,-0.018,0.009,-0.009,5,-35.044,4.856,10.913,81,81.029,1.968,5.063,82,0.046,0.035,-0.108,83,0.866,-0.334,9.763
15061.58183,3,0.756,-0.246,9.689,4,-0.009,0.029,0.009,5,-35.213,4.556,10.913,81,81.068,2.059,5.075,82,0.022,-0.244,-0.025,83,0.868,-0.349,9.762
15061.62226,3,0.890,-0.229,9.677,4,0.010,-0.058,-0.002,5,-35.213,4.725,11.156,81,81.108,2.043,5.050,82,-0.108,0.101,-0.073,83,0.864,-0.347,9.762
15061.66268,3,0.785,-0.344,9.667,4,0.018,-0.028,-0.009,5,-35.213,4.613,11.213,81,81.111,2.035,5.073,82,0.022,0.116,-0.085,83,0.868,-0.346,9.762
15061.70310,3,0.988,-0.507,9.591,4,0.010,-0.012,-0.011,5,-35.288,4.725,10.988,81,81.130,2.035,5.061,82,-0.081,0.002,-0.095,83,0.866,-0.346,9.762
15061.74352,3,0.794,-0.387,9.706,4,0.002,0.002,-0.014,5,-35.156,5.044,11.044,81,81.163,2.052,5.081,82,0.119,-0.159,-0.171,83,0.869,-0.348,9.762
15061.78394,3,0.952,-0.342,9.569,4,0.010,-0.009,-0.028,5,-35.156,5.044,10.856,81,81.190,2.059,5.068,82,-0.073,-0.037,-0.056,83,0.867,-0.350,9.762
15061.82437,3,0.847,-0.155,9.720,4,-0.002,0.017,-0.021,5,-35.288,5.156,10.613,81,81.252,2.027,5.086,82,0.082,0.002,-0.193,83,0.870,-0.344,9.762
15061.86479,3,0.737,-0.531,9.574,4,-0.014,-0.016,-0.015,5,-34.988,4.613,10.613,81,81.326,1.991,5.081,82,-0.022,0.183,-0.042,83,0.869,-0.338,9.762
15061.90521,3,0.878,-0.438,9.763,4,-0.016,-0.012,0.004,5,-34.913,4.613,10.669,81,81.403,2.056,5.077,82,-0.132,-0.182,-0.188,83,0.869,-0.349,9.762
15061.94563,3,0.804,-0.205,9.607,4,-0.002,0.016,0.010,5,-34.688,4.388,10.856,81,81.434,2.098,5.091,82,0.007,-0.082,0.002,83,0.871,-0.356,9.761
15061.98605,3,0.902,-0.471,9.818,4,0.010,-0.007,0.006,5,-34.988,4.556,11.044,81,81.465,2.065,5.072,82,-0.064,0.146,-0.155,83,0.868,-0.351,9.762
15062.02648,3,0.854,-0.282,9.545,4,-0.025,0.008,-0.005,5,-34.988,4.725,11.213,81,81.471,2.100,5.089,82,0.031,-0.114,0.057,83,0.870,-0.357,9.761
15062.06690,3,0.905,-0.289,9.837,4,0.011,0.002,-0.009,5,-34.856,4.313,10.988,81,81.482,2.123,5.083,82,-0.016,0.079,-0.216,83,0.870,-0.361,9.761
15062.10732,3,0.936,-0.229,9.533,4,0.010,0.015,-0.013,5,-34.988,4.256,10.913,81,81.508,2.113,5.102,82,0.032,0.070,0.076,83,0.873,-0.359,9.761
15062.14774,3,0.792,-0.509,9.720,4,0.009,-0.011,-0.001,5,-34.725,4.444,10.913,81,81.573,2.067,5.100,82,0.064,0.122,-0.228,83,0.872,-0.351,9.761
15062.18816,3,0.826,-0.282,9.516,4,-0.015,0.013,0.027,5,-34.425,4.313,10.744,81,81.611,2.120,5.096,82,-0.080,-0.149,-0.041,83,0.872,-0.360,9.761
15062.22859,3,0.782,-0.236,9.789,4,-0.007,0.001,0.024,5,-34.556,4.856,10.988,81,81.608,2.122,5.082,82,-0.043,0.079,-0.245,83,0.869,-0.361,9.761
15062.26901,3,0.873,-0.368,9.631,4,0.001,-0.007,0.027,5,-34.425,4.913,10.988,81,81.568,2.098,5.084,82,-0.088,0.121,0.027,83,0.870,-0.357,9.762
15062.30943,3,0.840,-0.402,9.696,4,-0.000,-0.012,0.025,5,-34.388,4.613,10.988,81,81.492,2.105,5.083,82,0.003,-0.010,-0.130,83,0.870,-0.358,9.761
15062.34985,3,0.838,-0.308,9.684,4,-0.012,0.011,0.023,5,-34.725,4.856,11.044,81,81.463,2.134,5.070,82,-0.027,-0.039,-0.065,83,0.867,-0.363,9.761
15062.39027,3,0.921,-0.380,9.744,4,-0.011,-0.025,0.014,5,-34.913,4.669,10.613,81,81.432,2.138,5.070,82,-0.029,0.056,-0.077,83,0.867,-0.364,9.761
15062.43070,3,0.873,-0.356,9.653,4,-0.000,0.015,0.024,5,-34.988,4.556,10.913,81,81.409,2.165,5.094,82,0.050,-0.012,-0.017,83,0.871,-0.368,9.761
15062.47112,3,0.909,-0.438,9.617,4,0.002,-0.007,-0.006,5,-35.156,4.313,11.213,81,81.383,2.191,5.079,82,0.004,0.017,-0.108,83,0.869,-0.373,9.761
15062.51154,3,0.816,-0.100,9.672,4,-0.006,-0.051,-0.001,5,-35.288,4.144,11.588,81,81.378,2.195,5.105,82,0.036,-0.065,-0.144,83,0.873,-0.373,9.761
15062.55196,3,0.838,-0.196,9.679,4,-0.012,-0.050,0.002,5,-35.213,4.444,11.456,81,81.422,2.125,5.110,82,-0.058,0.261,-0.089,83,0.874,-0.361,9.761
15062.59238,3,0.792,-0.406,9.586,4,-0.035,-0.039,0.020,5,-35.513,4.613,11.156,81,81.479,2.137,5.119,82,-0.037,0.167,-0.082,83,0.875,-0.364,9.761
15062.63281,3,0.924,-0.411,9.718,4,-0.032,0.032,0.035,5,-35.456,4.444,10.856,81,81.490,2.187,5.109,82,-0.082,-0.034,-0.175,83,0.874,-0.372,9.761
15062.67323,3,0.919,-0.586,9.696,4,-0.014,-0.003,0.003,5,-35.513,5.044,10.313,81,81.433,2.234,5.127,82,0.047,-0.031,-0.042,83,0.877,-0.380,9.760
15062.71365,3,1.051,-0.701,9.662,4,0.002,-0.016,-0.048,5,-35.569,5.044,10.013,81,81.382,2.341,5.142,82,0.040,-0.188,-0.063,83,0.879,-0.398,9.759
15062.75407,3,0.929,-0.933,9.679,4,-0.000,0.037,-0.047,5,-35.213,5.044,9.956,81,81.432,2.381,5.161,82,0.168,-0.296,-0.096,83,0.883,-0.405,9.758
15062.79449,3,0.883,-0.457,9.715,4,-0.018,-0.008,-0.037,5,-35.344,5.213,9.844,81,81.567,2.490,5.181,82,0.043,-0.509,-0.078,83,0.886,-0.424,9.757
15062.83492,3,0.945,-0.476,9.720,4,-0.005,0.010,-0.037,5,-35.288,4.913,10.088,81,81.672,2.494,5.186,82,-0.004,-0.033,-0.042,83,0.887,-0.424,9.757
15062.87534,3,0.840,-0.574,9.653,4,-0.004,-0.006,0.001,5,-35.156,4.913,10.313,81,81.748,2.496,5.202,82,0.056,-0.051,-0.037,83,0.889,-0.425,9.757
15062.91576,3,0.888,-0.387,9.617,4,0.006,-0.011,0.001,5,-35.288,5.156,10.556,81,81.751,2.521,5.195,82,-0.048,-0.145,-0.104,83,0.888,-0.429,9.757
15062.95618,3,0.912,-0.299,9.684,4,-0.007,0.001,-0.002,5,-35.044,4.913,10.669,81,81.731,2.522,5.198,82,-0.001,0.042,-0.140,83,0.889,-0.429,9.757
15062.99660,3,0.885,-0.394,9.662,4,-0.010,0.001,-0.010,5,-34.988,4.725,10.556,81,81.723,2.455,5.213,82,0.021,0.119,-0.073,83,0.891,-0.418,9.757
15063.03703,3,0.864,-0.485,9.698,4,0.005,-0.001,-0.001,5,-35.213,4.725,10.744,81,81.730,2.472,5.208,82,-0.006,0.027,-0.095,83,0.891,-0.421,9.757
15063.07745,3,0.900,-0.392,9.634,4,0.006,0.003,0.004,5,-35.213,4.444,10.669,81,81.733,2.489,5.211,82,-0.027,-0.061,-0.059,83,0.891,-0.424,9.757
15063.11787,3,0.828,-0.284,9.708,4,0.005,0.001,0.011,5,-35.288,4.313,10.856,81,81.745,2.476,5.208,82,0.009,0.030,-0.123,83,0.891,-0.421,9.757
15063.15829,3,0.912,-0.394,9.643,4,-0.034,0.006,0.021,5,-35.344,4.013,11.288,81,81.752,2.440,5.198,82,-0.061,0.131,-0.049,83,0.889,-0.415,9.757
15063.19872,3,0.857,-0.416,9.742,4,0.001,0.004,0.022,5,-35.044,3.844,11.156,81,81.748,2.464,5.195,82,0.024,0.025,-0.114,83,0.888,-0.419,9.757
15063.23914,3,0.804,-0.483,9.538,4,-0.011,0.024,0.045,5,-34.988,3.844,11.213,81,81.730,2.514,5.185,82,-0.030,0.012,-0.015,83,0.886,-0.428,9.757
15063.27956,3,0.881,-0.457,9.842,4,-0.017,0.010,0.048,5,-34.856,4.088,11.213,81,81.681,2.521,5.159,82,-0.078,-0.054,-0.219,83,0.882,-0.429,9.757
15063.31998,3,0.809,-0.337,9.576,4,-0.027,0.055,0.067,5,-34.856,4.556,11.288,81,81.601,2.532,5.174,82,-0.004,-0.026,0.085,83,0.885,-0.431,9.757
15063.36040,3,0.960,-0.749,9.715,4,0.002,-0.015,0.042,5,-34.725,4.313,11.288,81,81.488,2.572,5.147,82,-0.071,0.101,-0.181,83,0.880,-0.438,9.757
15063.40083,3,0.838,-0.181,9.670,4,-0.023,0.010,0.024,5,-35.044,4.613,11.513,81,81.371,2.686,5.153,82,0.079,-0.292,-0.041,83,0.881,-0.457,9.756
15063.44125,3,0.763,-0.335,9.696,4,0.010,-0.031,0.029,5,-35.156,4.988,11.513,81,81.355,2.644,5.147,82,-0.042,0.269,-0.087,83,0.880,-0.450,9.757
15063.48167,3,0.991,-0.646,9.677,4,0.002,0.004,0.022,5,-35.044,4.913,11.044,81,81.323,2.648,5.143,82,-0.116,0.116,-0.061,83,0.879,-0.451,9.757
15063.52209,3,0.790,-0.234,9.612,4,-0.034,0.003,0.057,5,-35.344,5.288,11.213,81,81.263,2.686,5.162,82,0.108,-0.189,-0.079,83,0.883,-0.457,9.756
15063.56251,3,0.859,-0.418,9.720,4,-0.016,0.011,0.063,5,-35.044,4.988,11.213,81,81.144,2.709,5.140,82,-0.089,0.227,-0.144,83,0.879,-0.461,9.756
15063.60294,3,0.895,-0.390,9.646,4,0.002,-0.005,0.045,5,-35.156,4.725,11.213,81,80.989,2.751,5.131,82,-0.018,0.050,-0.036,83,0.877,-0.468,9.756
15063.64336,3,0.782,-0.236,9.655,4,0.003,-0.007,0.071,5,-34.988,4.669,11.644,81,80.877,2.743,5.145,82,0.015,0.077,-0.110,83,0.880,-0.467,9.756
15063.68378,3,0.828,-0.418,9.742,4,-0.024,0.043,0.095,5,-34.725,4.856,11.513,81,80.804,2.742,5.124,82,-0.094,0.231,-0.101,83,0.876,-0.467,9.756
15063.72420,3,0.955,-0.524,9.603,4,-0.026,-0.034,0.088,5,-34.688,5.288,11.344,81,80.619,2.777,5.092,82,-0.043,0.055,-0.014,83,0.871,-0.473,9.756
15063.76462,3,0.945,-0.838,9.720,4,0.011,-0.020,0.040,5,-34.856,5.325,11.344,81,80.417,2.824,5.103,82,0.083,-0.043,-0.153,83,0.872,-0.481,9.756
15063.80505,3,0.943,-0.596,9.749,4,0.013,0.010,0.018,5,-34.688,5.644,11.456,81,80.300,2.925,5.108,82,0.072,-0.340,-0.035,83,0.873,-0.498,9.755
15063.84547,3,0.845,-0.445,9.677,4,0.004,-0.004,0.021,5,-34.613,5.644,11.344,81,80.233,2.970,5.101,82,0.071,-0.090,-0.006,83,0.872,-0.506,9.755
15063.88589,3,0.917,-0.488,9.691,4,0.002,-0.003,0.006,5,-34.725,5.756,11.756,81,80.189,2.971,5.098,82,-0.027,0.061,-0.078,83,0.872,-0.506,9.755
15063.92631,3,0.864,-0.586,9.670,4,0.001,-0.009,0.010,5,-34.556,6.188,11.588,81,80.144,2.988,5.107,82,0.044,0.021,-0.063,83,0.873,-0.509,9.754
15063.96673,3,0.871,-0.387,9.708,4,0.006,0.006,0.009,5,-34.425,6.056,11.513,81,80.102,3.004,5.108,82,-0.009,-0.074,-0.084,83,0.873,-0.512,9.754
15064.00716,3,0.871,-0.258,9.696,4,-0.029,0.029,0.016,5,-34.613,6.244,11.813,81,80.066,2.993,5.090,82,0.001,0.123,-0.047,83,0.870,-0.510,9.755
15064.04758,3,0.876,-0.406,9.631,4,-0.033,0.045,0.041,5,-34.556,6.188,11.588,81,80.025,2.991,5.082,82,0.002,0.251,-0.059,83,0.869,-0.509,9.755
15064.08800,3,0.883,-0.600,9.662,4,0.018,0.028,0.032,5,-34.688,6.113,12.113,81,79.927,3.037,5.059,82,0.011,0.111,-0.124,83,0.865,-0.517,9.755
15064.12842,3,0.859,-0.576,9.739,4,-0.012,-0.015,0.037,5,-34.913,6.413,12.169,81,79.807,3.048,5.060,82,0.018,-0.081,-0.093,83,0.865,-0.519,9.755
15064.16884,3,0.871,-0.349,9.670,4,-0.009,0.013,0.052,5,-34.688,6.544,12.056,81,79.720,3.067,5.056,82,-0.005,-0.054,-0.015,83,0.864,-0.522,9.755
15064.20927,3,0.878,-0.478,9.660,4,-0.017,-0.006,0.068,5,-34.556,6.413,12.113,81,79.588,3.082,5.041,82,0.009,0.176,-0.085,83,0.862,-0.525,9.755
15064.24969,3,0.945,-0.524,9.636,4,-0.011,-0.002,0.070,5,-34.144,6.188,12.169,81,79.410,3.103,5.035,82,0.017,0.051,-0.094,83,0.861,-0.529,9.754
15064.29011,3,0.881,-0.608,9.722,4,-0.008,0.021,0.063,5,-34.313,6.113,12.056,81,79.225,3.133,5.017,82,0.087,0.010,-0.118,83,0.858,-0.534,9.754
15064.33053,3,0.895,-0.708,9.598,4,-0.000,-0.008,0.039,5,-34.313,5.869,12.056,81,79.048,3.185,5.000,82,0.026,-0.065,-0.032,83,0.855,-0.543,9.754
15064.37095,3,0.914,-0.699,9.720,4,0.011,0.011,0.009,5,-34.313,6.056,12.056,81,78.930,3.228,4.986,82,0.043,-0.158,-0.156,83,0.853,-0.550,9.754
15064.41138,3,0.921,-0.646,9.655,4,-0.000,0.000,-0.009,5,-34.613,6.356,11.588,81,78.886,3.248,4.992,82,0.060,-0.146,-0.034,83,0.853,-0.553,9.754
15064.45180,3,0.861,-0.600,9.571,4,0.007,0.003,-0.013,5,-34.256,6.188,11.944,81,78.892,3.258,5.001,82,0.066,-0.091,-0.098,83,0.855,-0.555,9.754
15064.49222,3,0.909,-0.656,9.806,4,-0.021,-0.019,-0.003,5,-34.013,6.544,11.888,81,78.919,3.241,4.998,82,0.006,-0.048,-0.183,83,0.855,-0.552,9.754
15064.53264,3,0.869,-0.399,9.639,4,0.010,0.012,0.029,5,-33.788,6.825,11.813,81,78.912,3.258,5.012,82,0.052,-0.101,0.053,83,0.857,-0.555,9.753
15064.57306,3,0.840,-0.569,9.643,4,0.008,0.015,0.024,5,-33.656,6.656,12.113,81,78.865,3.251,4.998,82,0.014,0.155,-0.115,83,0.855,-0.554,9.754
15064.61349,3,0.909,-0.576,9.713,4,-0.001,0.002,0.026,5,-33.544,6.656,12.169,81,78.768,3.264,4.977,82,-0.011,-0.013,-0.111,83,0.851,-0.556,9.754
15064.65391,3,0.845,-0.584,9.662,4,0.005,0.005,0.016,5,-33.544,6.788,12.356,81,78.688,3.277,4.980,82,0.058,-0.018,-0.041,83,0.851,-0.558,9.754
15064.69433,3,0.900,-0.708,9.639,4,-0.014,-0.002,-0.006,5,-33.356,6.656,12.544,81,78.613,3.280,4.965,82,-0.004,-0.025,-0.092,83,0.849,-0.559,9.754
15064.73475,3,0.919,-0.557,9.703,4,0.003,0.015,-0.004,5,-33.225,6.825,12.113,81,78.570,3.301,4.976,82,0.049,-0.146,-0.114,83,0.851,-0.562,9.753
15064.77517,3,0.833,-0.344,9.634,4,0.001,-0.002,0.004,5,-33.356,6.825,12.056,81,78.550,3.300,4.979,82,0.068,0.005,-0.050,83,0.851,-0.562,9.753
15064.81560,3,0.883,-0.497,9.706,4,-0.008,0.002,0.016,5,-33.225,6.788,11.944,81,78.526,3.268,4.979,82,-0.018,0.213,-0.120,83,0.851,-0.557,9.754
15064.85602,3,0.818,-0.555,9.639,4,-0.004,0.010,0.008,5,-33.713,7.088,11.756,81,78.461,3.267,4.971,82,0.033,0.060,-0.048,83,0.850,-0.557,9.754
15064.89644,3,0.878,-0.442,9.691,4,0.005,-0.004,0.006,5,-33.788,7.144,11.813,81,78.398,3.274,4.959,82,-0.030,0.003,-0.115,83,0.848,-0.558,9.754
15064.93686,3,0.835,-0.632,9.715,4,0.010,-0.015,-0.006,5,-33.788,7.013,11.513,81,78.342,3.256,4.962,82,0.030,0.113,-0.063,83,0.848,-0.555,9.754
15064.97728,3,0.890,-0.464,9.624,4,0.016,-0.008,-0.009,5,-33.713,6.788,11.456,81,78.307,3.265,4.963,82,-0.013,-0.076,-0.039,83,0.849,-0.556,9.754
15065.01771,3,0.895,-0.474,9.763,4,-0.016,-0.002,-0.007,5,-33.788,6.544,11.456,81,78.309,3.234,4.972,82,0.040,0.087,-0.130,83,0.850,-0.551,9.754
15065.05813,3,0.893,-0.617,9.622,4,-0.009,0.016,-0.004,5,-33.788,6.544,11.644,81,78.324,3.213,4.989,82,0.042,0.073,0.009,83,0.853,-0.547,9.754
15065.09855,3,0.890,-0.402,9.677,4,-0.012,0.013,0.015,5,-33.788,6.825,11.513,81,78.329,3.242,4.980,82,0.042,-0.065,-0.132,83,0.851,-0.552,9.754
15065.13897,3,0.826,-0.404,9.715,4,0.002,0.002,0.048,5,-33.544,7.256,11.456,81,78.301,3.239,4.970,82,0.040,0.150,-0.077,83,0.850,-0.552,9.754
15065.17939,3,0.763,-0.495,9.617,4,0.004,-0.009,0.023,5,-33.544,7.144,11.213,81,78.194,3.239,4.941,82,-0.019,0.148,-0.040,83,0.845,-0.552,9.755
15065.21982,3,0.907,-0.500,9.722,4,0.018,-0.012,-0.005,5,-33.713,7.088,11.156,81,78.086,3.225,4.927,82,-0.079,0.055,-0.138,83,0.842,-0.550,9.755
15065.26024,3,0.828,-0.536,9.706,4,0.020,-0.024,-0.036,5,-33.713,7.013,11.156,81,78.050,3.191,4.956,82,0.060,0.044,-0.033,83,0.847,-0.544,9.755
15065.30066,3,0.857,-0.663,9.646,4,0.006,0.004,-0.056,5,-34.013,6.825,11.644,81,78.093,3.156,4.973,82,-0.022,0.002,-0.049,83,0.850,-0.538,9.755
15065.34108,3,0.883,-0.363,9.756,4,-0.012,0.015,-0.052,5,-34.013,7.088,12.169,81,78.202,3.139,5.000,82,0.002,-0.128,-0.109,83,0.855,-0.535,9.755
15065.38151,3,0.842,-0.210,9.576,4,-0.006,-0.004,-0.035,5,-33.788,7.013,12.356,81,78.306,3.084,5.021,82,0.025,0.163,0.001,83,0.858,-0.526,9.755
15065.42193,3,0.885,-0.280,9.703,4,0.001,-0.009,-0.002,5,-33.413,7.013,12.713,81,78.382,3.053,5.027,82,-0.017,0.310,-0.179,83,0.859,-0.520,9.755
15065.46235,3,0.826,-0.598,9.679,4,-0.000,-0.002,-0.009,5,-33.488,6.825,12.656,81,78.413,3.025,5.009,82,0.029,0.235,-0.053,83,0.856,-0.515,9.756
15065.50277,3,0.909,-0.615,9.581,4,0.002,0.003,-0.005,5,-33.413,6.656,12.413,81,78.399,3.032,5.000,82,-0.029,-0.081,-0.077,83,0.855,-0.517,9.756
15065.54319,3,0.890,-0.495,9.715,4,0.001,0.004,0.005,5,-33.113,6.356,11.944,81,78.397,3.022,5.007,82,0.053,-0.100,-0.175,83,0.856,-0.515,9.756
15065.58361,3,0.838,-0.845,9.634,4,-0.000,-0.017,0.001,5,-33.713,6.188,12.244,81,78.413,3.007,5.007,82,0.034,0.017,-0.041,83,0.856,-0.512,9.756
15065.62404,3,0.907,-0.749,9.744,4,0.010,0.012,0.003,5,-33.713,6.356,11.944,81,78.410,3.055,4.987,82,-0.014,-0.324,-0.122,83,0.853,-0.521,9.756
15065.66446,3,0.835,-0.423,9.665,4,-0.000,0.008,0.011,5,-33.713,6.413,12.056,81,78.398,3.119,4.984,82,0.055,-0.217,-0.011,83,0.852,-0.531,9.755
15065.70488,3,0.869,-0.124,9.646,4,-0.009,-0.002,0.016,5,-33.844,6.788,12.356,81,78.379,3.096,4.974,82,-0.015,0.105,-0.091,83,0.850,-0.528,9.755
15065.74530,3,0.857,-0.301,9.672,4,0.009,0.003,0.021,5,-34.013,6.956,12.169,81,78.348,3.046,4.969,82,0.020,0.395,-0.110,83,0.849,-0.519,9.756
15065.78573,3,0.763,-0.397,9.696,4,0.010,-0.012,0.014,5,-33.956,6.956,12.413,81,78.287,3.016,4.953,82,0.010,0.213,-0.084,83,0.847,-0.514,9.756
15065.82615,3,0.802,-0.509,9.653,4,-0.010,0.014,0.027,5,-33.488,6.956,12.656,81,78.235,2.993,4.929,82,-0.080,0.113,-0.061,83,0.843,-0.510,9.757
15065.86657,3,0.845,-0.433,9.653,4,0.010,-0.002,0.002,5,-33.713,7.088,12.956,81,78.183,2.991,4.925,82,-0.040,0.001,-0.104,83,0.842,-0.510,9.757
15065.90699,3,0.921,-0.651,9.703,4,0.005,-0.011,-0.014,5,-33.488,7.256,13.144,81,78.130,2.954,4.930,82,0.002,0.070,-0.104,83,0.843,-0.503,9.757
15065.94741,3,0.881,-0.241,9.715,4,-0.006,-0.009,-0.012,5,-33.488,7.088,13.313,81,78.100,2.972,4.926,82,0.079,-0.144,-0.054,83,0.842,-0.507,9.757
15065.98784,3,0.878,-0.452,9.627,4,-0.007,0.011,-0.010,5,-33.713,7.313,13.256,81,78.103,2.926,4.926,82,0.039,0.258,-0.043,83,0.842,-0.499,9.758
15066.02826,3,0.869,-0.385,9.658,4,-0.011,-0.004,-0.023,5,-33.713,7.256,13.444,81,78.096,2.930,4.926,82,0.036,0.047,-0.131,83,0.842,-0.499,9.758
15066.06868,3,0.780,-0.696,9.718,4,-0.005,0.011,-0.010,5,-33.713,7.144,13.256,81,78.116,2.928,4.909,82,0.030,0.114,-0.100,83,0.839,-0.499,9.758
15066.10910,3,0.780,-0.617,9.660,4,-0.007,0.012,0.002,5,-34.069,7.256,12.788,81,78.119,2.984,4.880,82,-0.054,-0.187,-0.040,83,0.834,-0.509,9.758
15066.14952,3,0.929,-0.553,9.677,4,-0.000,0.005,-0.014,5,-34.313,7.088,12.844,81,78.100,2.992,4.872,82,-0.053,-0.107,-0.098,83,0.833,-0.510,9.758
15066.18995,3,0.921,-0.512,9.718,4,-0.013,-0.007,-0.035,5,-33.956,7.256,12.413,81,78.085,2.992,4.880,82,0.095,-0.043,-0.081,83,0.834,-0.510,9.758
15066.23037,3,0.948,-0.387,9.658,4,0.007,0.010,-0.064,5,-33.844,7.256,12.356,81,78.105,3.009,4.882,82,0.086,0.001,-0.040,83,0.835,-0.513,9.758
15066.27079,3,0.792,-0.543,9.641,4,-0.020,0.003,-0.084,5,-33.788,7.313,12.544,81,78.215,2.991,4.881,82,0.114,0.123,-0.100,83,0.834,-0.510,9.758
15066.31121,3,0.737,-0.622,9.734,4,0.003,-0.001,-0.047,5,-33.656,7.369,12.488,81,78.368,3.001,4.871,82,-0.041,-0.031,-0.117,83,0.833,-0.512,9.758
15066.35163,3,0.823,-0.509,9.629,4,-0.000,-0.016,-0.036,5,-33.844,7.444,12.656,81,78.445,3.010,4.867,82,-0.095,-0.109,-0.024,83,0.832,-0.513,9.758
15066.39206,3,0.828,-0.584,9.672,4,-0.009,-0.001,-0.021,5,-33.956,7.556,12.844,81,78.473,3.001,4.870,82,-0.009,0.003,-0.129,83,0.833,-0.512,9.758
15066.43248,3,0.933,-0.739,9.689,4,-0.013,0.012,-0.011,5,-34.013,7.556,12.656,81,78.490,3.003,4.851,82,-0.001,-0.072,-0.086,83,0.829,-0.512,9.758
15066.47290,3,0.849,-0.694,9.698,4,-0.012,0.013,0.006,5,-34.256,7.256,12.544,81,78.463,3.065,4.849,82,0.104,-0.217,-0.069,83,0.829,-0.522,9.758
15066.51332,3,0.790,-0.847,9.689,4,0.012,-0.003,-0.007,5,-33.956,7.088,12.544,81,78.417,3.121,4.816,82,0.026,-0.162,-0.060,83,0.823,-0.532,9.758
15066.55374,3,0.797,-0.459,9.672,4,0.013,-0.015,-0.014,5,-34.313,6.825,12.413,81,78.377,3.176,4.805,82,-0.031,-0.306,-0.068,83,0.821,-0.541,9.757
15066.59417,3,0.770,-0.306,9.643,4,-0.002,-0.001,-0.015,5,-34.256,7.013,12.713,81,78.382,3.137,4.810,82,-0.025,0.076,-0.085,83,0.822,-0.535,9.757
15066.63459,3,0.790,-0.409,9.686,4,-0.002,0.000,-0.009,5,-34.013,6.825,12.713,81,78.396,3.097,4.805,82,-0.052,0.222,-0.115,83,0.822,-0.528,9.758
15066.67501,3,0.809,-0.414,9.660,4,-0.011,0.001,-0.022,5,-34.069,7.256,12.656,81,78.404,3.084,4.795,82,-0.030,0.117,-0.072,83,0.820,-0.526,9.758
15066.71543,3,0.806,-0.402,9.670,4,-0.000,0.000,-0.026,5,-33.788,7.688,12.656,81,78.413,3.067,4.789,82,-0.010,0.109,-0.098,83,0.819,-0.523,9.758
15066.75585,3,0.864,-0.548,9.615,4,-0.005,0.004,-0.042,5,-33.844,7.444,12.413,81,78.423,3.038,4.788,82,-0.013,0.116,-0.089,83,0.819,-0.518,9.759
15066.79628,3,0.708,-0.629,9.979,4,0.033,-0.066,-0.038,5,-34.069,7.688,12.413,81,78.459,3.045,4.775,82,0.048,-0.029,-0.144,83,0.816,-0.519,9.759
15066.83670,3,0.797,-0.291,9.607,4,0.035,-0.004,-0.011,5,-34.256,7.369,12.113,81,78.488,3.065,4.749,82,-0.104,-0.106,0.220,83,0.812,-0.523,9.759
15066.87712,3,0.842,-0.447,9.674,4,-0.002,-0.005,-0.008,5,-34.144,6.956,12.169,81,78.491,2.995,4.768,82,-0.018,0.220,-0.152,83,0.815,-0.511,9.759
15066.91754,3,0.816,-0.679,9.718,4,0.012,0.008,0.009,5,-34.313,6.956,11.944,81,78.489,2.973,4.791,82,0.023,0.060,-0.085,83,0.819,-0.507,9.759
15066.95796,3,0.811,-0.615,9.651,4,0.005,0.005,-0.001,5,-34.256,7.144,11.944,81,78.453,2.987,4.791,82,-0.003,-0.170,-0.041,83,0.819,-0.509,9.759
15066.99839,3,0.864,-0.639,9.617,4,-0.000,-0.009,-0.008,5,-34.069,7.313,12.056,81,78.425,2.981,4.795,82,-0.009,-0.107,-0.108,83,0.820,-0.508,9.759
15067.03881,3,0.806,-0.646,9.696,4,0.007,0.001,-0.015,5,-34.425,7.856,11.644,81,78.395,2.987,4.804,82,0.043,-0.130,-0.142,83,0.821,-0.509,9.759
15067.07923,3,0.845,-0.526,9.686,4,0.006,0.006,-0.012,5,-34.388,7.913,11.813,81,78.368,3.002,4.796,82,-0.014,-0.134,-0.063,83,0.820,-0.512,9.759
15067.11965,3,0.799,-0.464,9.710,4,-0.004,-0.004,-0.014,5,-34.688,7.988,11.513,81,78.335,2.986,4.795,82,0.025,-0.017,-0.073,83,0.820,-0.509,9.759
15067.16007,3,0.845,-0.363,9.665,4,0.010,0.019,-0.013,5,-34.988,7.988,11.288,81,78.302,2.970,4.795,82,-0.021,0.042,-0.049,83,0.820,-0.506,9.759
15067.20050,3,0.814,-0.387,9.658,4,-0.012,0.011,-0.004,5,-34.688,7.688,11.288,81,78.278,2.939,4.795,82,0.025,0.138,-0.095,83,0.820,-0.501,9.759
15067.24092,3,0.814,-0.294,9.641,4,-0.020,-0.001,0.020,5,-34.556,7.688,11.344,81,78.257,2.907,4.780,82,-0.003,0.109,-0.102,83,0.817,-0.496,9.760
15067.28134,3,0.806,-0.562,9.629,4,0.013,0.009,0.006,5,-34.613,7.369,11.756,81,78.194,2.873,4.762,82,-0.000,0.196,-0.120,83,0.814,-0.490,9.761
15067.32176,3,0.758,-0.550,9.710,4,-0.002,-0.002,-0.001,5,-34.388,7.313,11.944,81,78.127,2.873,4.743,82,-0.005,-0.072,-0.132,83,0.811,-0.490,9.761
15067.36218,3,0.830,-0.402,9.651,4,-0.000,0.020,-0.003,5,-34.388,7.313,12.169,81,78.099,2.867,4.731,82,-0.051,-0.061,-0.051,83,0.809,-0.489,9.761
15067.40261,3,0.766,-0.629,9.571,4,0.001,-0.005,-0.009,5,-34.856,7.556,11.888,81,78.074,2.844,4.718,82,0.023,0.083,-0.110,83,0.807,-0.485,9.761
15067.44303,3,0.814,-0.466,9.775,4,0.017,0.001,-0.016,5,-34.856,7.613,11.456,81,78.059,2.857,4.707,82,-0.039,-0.142,-0.190,83,0.805,-0.487,9.761
15067.48345,3,0.806,-0.404,9.639,4,-0.008,0.008,-0.020,5,-35.044,7.744,11.288,81,78.051,2.829,4.704,82,0.010,0.016,0.013,83,0.804,-0.482,9.762
15067.52387,3,0.773,-0.452,9.655,4,0.006,0.009,-0.012,5,-35.156,7.744,11.156,81,78.063,2.814,4.691,82,0.004,0.076,-0.123,83,0.802,-0.480,9.762
15067.56429,3,0.747,-0.399,9.734,4,0.029,0.008,-0.005,5,-34.688,7.556,11.213,81,78.062,2.804,4.675,82,-0.026,0.026,-0.107,83,0.799,-0.478,9.762
15067.60472,3,0.838,-0.258,9.627,4,-0.004,-0.009,-0.004,5,-34.425,7.313,11.156,81,78.049,2.752,4.677,82,-0.053,0.070,-0.029,83,0.800,-0.469,9.763
15067.64514,3,0.871,-0.332,9.660,4,-0.000,-0.003,-0.003,5,-34.425,7.088,11.044,81,78.032,2.706,4.678,82,0.038,0.203,-0.136,83,0.800,-0.461,9.763
15067.68556,3,0.799,-0.600,9.667,4,0.011,-0.028,-0.013,5,-34.613,7.013,10.913,81,78.020,2.682,4.672,82,0.072,0.125,-0.103,83,0.799,-0.457,9.763
15067.72598,3,0.747,-0.694,9.646,4,-0.001,0.001,-0.015,5,-35.044,6.825,10.313,81,78.031,2.687,4.665,82,0.001,-0.142,-0.096,83,0.798,-0.458,9.763
15067.76640,3,0.826,-0.514,9.641,4,0.010,-0.014,-0.020,5,-35.456,6.825,10.313,81,78.060,2.702,4.647,82,-0.047,-0.233,-0.117,83,0.794,-0.461,9.764
15067.80683,3,0.754,-0.471,9.703,4,0.003,-0.011,-0.026,5,-35.756,6.656,10.088,81,78.114,2.688,4.654,82,0.030,-0.056,-0.123,83,0.796,-0.458,9.764
15067.84725,3,0.773,-0.500,9.636,4,-0.004,0.018,-0.015,5,-35.888,6.488,9.656,81,78.190,2.670,4.646,82,-0.040,-0.016,-0.061,83,0.794,-0.455,9.764
15067.88767,3,0.809,-0.521,9.629,4,-0.007,-0.028,-0.021,5,-35.888,6.544,9.788,81,78.274,2.666,4.645,82,-0.021,-0.045,-0.128,83,0.794,-0.455,9.764
15067.92809,3,0.835,-0.629,9.730,4,0.004,0.001,-0.026,5,-35.756,6.488,9.656,81,78.337,2.664,4.646,82,0.015,-0.067,-0.135,83,0.794,-0.454,9.764
15067.96852,3,0.780,-0.526,9.660,4,0.005,-0.020,-0.015,5,-35.888,6.413,9.413,81,78.422,2.680,4.649,82,0.040,-0.172,-0.034,83,0.795,-0.457,9.764
15068.00894,3,0.773,-0.521,9.639,4,0.010,0.021,-0.019,5,-36.056,6.356,9.113,81,78.489,2.676,4.650,82,-0.015,-0.070,-0.104,83,0.795,-0.456,9.764
15068.04936,3,0.787,-0.440,9.694,4,0.002,0.016,-0.025,5,-36.225,6.244,8.625,81,78.552,2.674,4.638,82,-0.020,-0.065,-0.125,83,0.793,-0.456,9.764
15068.08978,3,0.809,-0.541,9.662,4,0.008,0.011,-0.012,5,-36.713,5.813,8.044,81,78.642,2.652,4.647,82,-0.007,0.012,-0.070,83,0.795,-0.452,9.764
15068.13020,3,0.790,-0.476,9.694,4,-0.005,0.010,-0.005,5,-36.788,5.813,7.856,81,78.746,2.653,4.645,82,0.015,-0.089,-0.102,83,0.794,-0.452,9.764
15068.17063,3,0.725,-0.438,9.670,4,0.013,0.004,-0.008,5,-37.013,5.644,8.156,81,78.857,2.653,4.634,82,-0.002,-0.023,-0.070,83,0.792,-0.452,9.764
15068.21105,3,0.806,-0.438,9.691,4,0.013,0.019,-0.018,5,-36.956,5.644,7.913,81,78.909,2.631,4.631,82,-0.067,0.011,-0.094,83,0.792,-0.449,9.764
15068.25147,3,0.766,-0.311,9.670,4,-0.001,-0.006,-0.022,5,-37.069,5.325,7.744,81,79.038,2.612,4.636,82,0.013,0.007,-0.073,83,0.793,-0.445,9.764
15068.29189,3,0.782,-0.373,9.653,4,0.009,0.016,-0.021,5,-36.788,4.988,7.256,81,79.147,2.577,4.637,82,-0.027,0.129,-0.095,83,0.793,-0.440,9.765
15068.33231,3,0.761,-0.440,9.629,4,0.010,0.003,-0.023,5,-36.788,4.444,7.256,81,79.288,2.551,4.635,82,-0.010,0.062,-0.112,83,0.792,-0.435,9.765
15068.37274,3,0.770,-0.457,9.770,4,0.019,0.009,-0.039,5,-36.956,4.144,7.256,81,79.442,2.536,4.628,82,-0.030,-0.007,-0.136,83,0.791,-0.433,9.765
15068.41316,3,0.742,-0.354,9.636,4,-0.001,0.002,-0.059,5,-36.113,4.088,7.088,81,79.633,2.509,4.630,82,-0.022,-0.029,0.005,83,0.792,-0.428,9.765
15068.45358,3,0.766,-0.502,9.636,4,0.012,0.002,-0.043,5,-36.356,3.844,7.256,81,79.846,2.481,4.630,82,-0.050,0.069,-0.129,83,0.792,-0.423,9.765
15068.49400,3,0.799,-0.438,9.691,4,0.004,-0.004,-0.034,5,-36.413,3.844,7.013,81,80.073,2.470,4.634,82,-0.026,-0.081,-0.130,83,0.792,-0.421,9.766
15068.53442,3,0.768,-0.404,9.710,4,0.006,-0.024,-0.052,5,-36.488,3.713,7.013,81,80.278,2.443,4.643,82,0.005,-0.021,-0.075,83,0.794,-0.417,9.766
15068.57485,3,0.787,-0.474,9.655,4,0.002,-0.004,-0.037,5,-36.788,3.169,7.013,81,80.514,2.416,4.644,82,-0.026,0.008,-0.056,83,0.794,-0.412,9.766
15068.61527,3,0.787,-0.399,9.701,4,0.006,-0.013,-0.028,5,-36.956,2.888,6.788,81,80.735,2.414,4.642,82,-0.007,-0.062,-0.111,83,0.794,-0.412,9.766
15068.65569,3,0.775,-0.469,9.679,4,0.011,-0.028,-0.024,5,-37.144,2.213,6.413,81,80.957,2.397,4.645,82,-0.007,0.010,-0.065,83,0.794,-0.409,9.766
15068.69611,3,0.814,-0.394,9.655,4,0.002,0.011,-0.027,5,-37.069,1.744,6.188,81,81.186,2.389,4.644,82,-0.019,-0.062,-0.087,83,0.794,-0.407,9.766
15068.73653,3,0.782,-0.464,9.646,4,0.001,0.003,-0.004,5,-37.256,1.556,5.944,81,81.436,2.367,4.644,82,0.020,0.010,-0.111,83,0.794,-0.404,9.766
15068.77696,3,0.770,-0.464,9.694,4,0.005,0.013,0.003,5,-37.256,1.069,5.756,81,81.661,2.367,4.642,82,-0.012,-0.060,-0.120,83,0.794,-0.404,9.766
15068.81738,3,0.811,-0.476,9.674,4,0.006,-0.002,-0.003,5,-37.388,0.788,5.756,81,81.867,2.364,4.634,82,-0.022,-0.061,-0.072,83,0.792,-0.403,9.766
15068.85780,3,0.840,-0.502,9.648,4,0.020,0.008,-0.004,5,-37.256,0.188,5.456,81,82.064,2.373,4.628,82,0.020,-0.071,-0.092,83,0.791,-0.405,9.766
15068.89822,3,0.768,-0.438,9.682,4,-0.014,-0.012,0.007,5,-37.144,-0.356,5.644,81,82.294,2.375,4.629,82,0.049,-0.097,-0.118,83,0.791,-0.405,9.766
15068.93864,3,0.756,-0.459,9.679,4,-0.000,0.003,0.014,5,-37.425,-0.713,5.644,81,82.538,2.373,4.627,82,-0.023,-0.033,-0.084,83,0.791,-0.405,9.766
15068.97907,3,0.778,-0.344,9.672,4,0.012,0.008,0.015,5,-37.013,-1.013,5.869,81,82.782,2.381,4.614,82,-0.033,-0.053,-0.087,83,0.789,-0.406,9.766
15069.01949,3,0.852,-0.598,9.698,4,0.002,0.019,0.007,5,-37.388,-0.844,5.944,81,83.020,2.368,4.602,82,-0.009,0.060,-0.095,83,0.787,-0.404,9.767
15069.05991,3,0.780,-0.505,9.706,4,0.006,-0.014,-0.001,5,-37.725,-1.013,5.813,81,83.254,2.403,4.598,82,0.066,-0.188,-0.069,83,0.786,-0.410,9.766
15069.10033,3,0.785,-0.445,9.636,4,0.006,-0.007,-0.005,5,-37.688,-1.313,5.944,81,83.507,2.413,4.604,82,-0.007,-0.093,-0.060,83,0.787,-0.412,9.766
15069.14075,3,0.780,-0.466,9.701,4,-0.007,-0.009,-0.013,5,-38.213,-1.613,5.644,81,83.787,2.404,4.598,82,-0.001,-0.035,-0.130,83,0.786,-0.410,9.766
15069.18118,3,0.761,-0.397,9.682,4,0.007,-0.003,-0.007,5,-37.988,-2.325,5.813,81,84.093,2.402,4.602,82,-0.007,-0.056,-0.065,83,0.787,-0.410,9.766
15069.22160,3,0.768,-0.294,9.715,4,0.013,0.005,-0.007,5,-38.044,-2.288,6.056,81,84.424,2.392,4.594,82,-0.025,0.011,-0.085,83,0.786,-0.408,9.767
15069.26202,3,0.758,-0.466,9.643,4,0.010,0.029,-0.002,5,-37.913,-2.756,5.944,81,84.731,2.354,4.587,82,-0.016,0.107,-0.052,83,0.784,-0.401,9.767
15069.30244,3,0.787,-0.169,9.682,4,-0.010,-0.006,0.007,5,-37.556,-3.113,6.188,81,85.042,2.357,4.577,82,-0.025,-0.064,-0.124,83,0.783,-0.402,9.767
15069.34286,3,0.687,-0.215,9.679,4,0.015,0.012,-0.012,5,-37.388,-3.356,6.413,81,85.331,2.319,4.572,82,0.005,0.227,-0.085,83,0.782,-0.396,9.767
15069.38329,3,0.809,-0.280,9.605,4,-0.011,-0.004,-0.032,5,-37.556,-3.656,6.188,81,85.648,2.266,4.554,82,-0.092,0.172,-0.089,83,0.779,-0.386,9.768
15069.42371,3,0.802,-0.291,9.696,4,0.018,-0.002,-0.020,5,-37.388,-3.413,6.413,81,86.024,2.242,4.544,82,0.032,0.102,-0.163,83,0.777,-0.382,9.768
15069.46413,3,0.720,-0.409,9.679,4,0.015,-0.004,0.010,5,-37.913,-3.788,6.956,81,86.379,2.213,4.541,82,0.026,0.086,-0.073,83,0.776,-0.377,9.769
15069.50455,3,0.751,-0.469,9.701,4,0.007,0.003,0.024,5,-38.288,-3.956,7.088,81,86.694,2.200,4.513,82,-0.052,-0.034,-0.090,83,0.772,-0.375,9.769
15069.54497,3,0.770,-0.682,9.670,4,-0.000,-0.009,0.008,5,-38.288,-4.444,7.688,81,86.966,2.212,4.502,82,-0.019,-0.092,-0.068,83,0.770,-0.377,9.769
15069.58540,3,0.799,-0.507,9.674,4,-0.001,-0.006,0.020,5,-38.456,-4.988,8.456,81,87.244,2.250,4.483,82,0.003,-0.298,-0.099,83,0.766,-0.384,9.769
15069.62582,3,0.754,-0.315,9.691,4,0.007,-0.017,0.021,5,-38.344,-4.913,8.344,81,87.542,2.263,4.475,82,0.034,-0.121,-0.095,83,0.765,-0.386,9.769
15069.66624,3,0.782,-0.560,9.662,4,0.021,-0.004,0.016,5,-38.456,-5.156,8.888,81,87.811,2.249,4.472,82,-0.011,0.069,-0.078,83,0.765,-0.384,9.769
15069.70666,3,0.720,-0.380,9.674,4,0.018,0.024,0.025,5,-38.513,-5.156,9.413,81,88.240,2.266,4.454,82,0.020,-0.173,-0.107,83,0.762,-0.387,9.769
15069.74708,3,0.727,-0.280,9.691,4,-0.009,0.010,0.048,5,-38.756,-5.044,9.469,81,88.352,2.242,4.429,82,-0.037,0.003,-0.096,83,0.757,-0.383,9.770
15069.78751,3,0.790,-0.303,9.639,4,0.009,-0.006,0.048,5,-38.569,-5.156,10.313,81,88.568,2.234,4.426,82,-0.030,0.101,-0.079,83,0.757,-0.381,9.770
15069.82793,3,0.828,-0.466,9.624,4,-0.004,0.009,0.031,5,-38.288,-5.325,10.556,81,88.748,2.222,4.411,82,0.036,0.076,-0.131,83,0.754,-0.379,9.770
15069.86835,3,0.725,-0.593,9.682,4,-0.021,-0.014,0.024,5,-38.156,-5.513,10.744,81,88.947,2.240,4.400,82,0.076,-0.084,-0.146,83,0.752,-0.382,9.770
15069.90877,3,0.790,-0.469,9.665,4,-0.001,-0.009,0.025,5,-38.213,-5.456,11.288,81,89.177,2.285,4.388,82,-0.025,-0.203,-0.088,83,0.750,-0.390,9.770
15069.94919,3,0.720,-0.394,9.684,4,0.013,0.003,0.013,5,-38.288,-5.644,11.344,81,89.403,2.295,4.379,82,0.041,-0.078,-0.105,83,0.749,-0.392,9.770
15069.98962,3,0.723,-0.371,9.677,4,0.004,0.002,0.002,5,-38.756,-5.588,12.056,81,89.647,2.287,4.363,82,-0.026,-0.004,-0.086,83,0.746,-0.390,9.770
15070.03004,3,0.761,-0.533,9.679,4,-0.004,0.004,-0.004,5,-39.056,-5.456,12.056,81,89.925,2.264,4.352,82,-0.021,0.015,-0.094,83,0.744,-0.386,9.771
15070.07046,3,0.744,-0.495,9.701,4,0.001,0.001,0.014,5,-39.188,-5.756,12.244,81,90.189,2.285,4.347,82,0.018,-0.143,-0.092,83,0.743,-0.390,9.771
15070.11088,3,0.773,-0.452,9.665,4,0.012,0.003,-0.009,5,-39.413,-5.644,12.488,81,90.434,2.307,4.340,82,0.002,-0.101,-0.070,83,0.742,-0.394,9.771
15070.15130,3,0.780,-0.375,9.698,4,0.005,0.002,-0.027,5,-39.113,-5.944,12.656,81,90.811,2.310,4.335,82,0.032,-0.058,-0.106,83,0.741,-0.394,9.771
15070.19173,3,0.723,-0.433,9.667,4,0.002,-0.003,-0.022,5,-38.869,-5.869,12.656,81,91.098,2.296,4.335,82,0.039,0.017,-0.073,83,0.741,-0.392,9.771
15070.23215,3,0.723,-0.390,9.665,4,0.005,0.009,-0.018,5,-38.756,-5.644,12.713,81,91.394,2.293,4.334,82,-0.018,-0.042,-0.104,83,0.741,-0.391,9.771
15070.27257,3,0.735,-0.270,9.679,4,0.003,0.013,-0.022,5,-38.569,-5.644,12.956,81,91.651,2.278,4.326,82,-0.017,-0.001,-0.106,83,0.740,-0.389,9.771
15070.31299,3,0.727,-0.318,9.713,4,-0.006,-0.001,-0.013,5,-38.456,-5.456,12.956,81,91.903,2.252,4.324,82,-0.004,0.114,-0.092,83,0.739,-0.384,9.771
15070.35341,3,0.696,-0.284,9.646,4,0.010,-0.007,-0.008,5,-38.925,-5.288,13.013,81,92.131,2.240,4.322,82,-0.012,0.064,-0.058,83,0.739,-0.382,9.771
15070.39384,3,0.735,-0.466,9.679,4,0.005,-0.002,-0.025,5,-39.056,-5.513,12.956,81,92.333,2.221,4.315,82,-0.042,0.095,-0.125,83,0.738,-0.379,9.772
15070.43426,3,0.739,-0.447,9.689,4,-0.011,0.003,-0.029,5,-39.413,-5.456,13.013,81,92.547,2.226,4.312,82,-0.002,-0.086,-0.092,83,0.737,-0.380,9.772
15070.47468,3,0.737,-0.414,9.670,4,-0.013,0.002,-0.013,5,-39.188,-5.156,13.556,81,92.780,2.229,4.314,82,0.001,-0.067,-0.083,83,0.738,-0.380,9.771
15070.51510,3,0.735,-0.361,9.665,4,0.008,-0.009,-0.022,5,-38.869,-5.325,14.156,81,92.972,2.229,4.315,82,-0.001,-0.034,-0.101,83,0.738,-0.380,9.771
15070.55552,3,0.766,-0.512,9.703,4,-0.000,-0.003,-0.016,5,-38.756,-5.288,14.344,81,93.147,2.218,4.313,82,-0.002,0.017,-0.107,83,0.737,-0.378,9.772
15070.59595,3,0.732,-0.313,9.677,4,-0.008,-0.004,-0.018,5,-38.569,-5.325,14.213,81,93.308,2.243,4.320,82,0.027,-0.129,-0.068,83,0.739,-0.383,9.771
15070.63637,3,0.725,-0.332,9.672,4,0.007,-0.002,-0.009,5,-38.569,-5.456,13.913,81,93.476,2.224,4.320,82,-0.007,0.066,-0.094,83,0.739,-0.379,9.771
15070.67679,3,0.706,-0.368,9.662,4,0.004,0.009,-0.010,5,-38.456,-5.156,13.556,81,93.630,2.210,4.318,82,-0.013,0.045,-0.100,83,0.738,-0.377,9.772
15070.71721,3,0.780,-0.430,9.727,4,0.001,-0.004,-0.019,5,-38.569,-4.856,13.669,81,93.753,2.205,4.309,82,-0.031,0.008,-0.110,83,0.737,-0.376,9.772
15070.75763,3,0.720,-0.179,9.605,4,-0.009,-0.004,-0.020,5,-38.569,-4.669,14.044,81,93.863,2.203,4.313,82,0.043,-0.054,-0.045,83,0.737,-0.376,9.772
15070.79806,3,0.708,-0.327,9.677,4,-0.000,0.015,-0.016,5,-39.188,-4.613,14.044,81,93.988,2.173,4.311,82,-0.017,0.192,-0.167,83,0.737,-0.371,9.772
15070.83848,3,0.775,-0.471,9.706,4,0.017,0.015,-0.023,5,-39.056,-4.856,14.156,81,94.099,2.164,4.304,82,-0.028,0.042,-0.095,83,0.736,-0.369,9.772
15070.87890,3,0.732,-0.224,9.658,4,0.002,0.004,-0.026,5,-39.225,-4.725,14.456,81,94.213,2.165,4.306,82,0.039,-0.102,-0.066,83,0.736,-0.369,9.772
15070.91932,3,0.744,-0.366,9.694,4,-0.004,0.002,-0.028,5,-39.656,-4.856,14.456,81,94.338,2.121,4.303,82,-0.004,0.138,-0.114,83,0.736,-0.362,9.772
15070.95974,3,0.821,-0.593,9.696,4,-0.005,-0.006,-0.041,5,-39.356,-4.988,14.644,81,94.462,2.118,4.305,82,0.008,-0.005,-0.078,83,0.736,-0.361,9.772
15071.00017,3,0.737,-0.378,9.653,4,-0.006,-0.002,-0.057,5,-39.413,-4.856,14.756,81,94.586,2.173,4.321,82,0.082,-0.222,-0.076,83,0.739,-0.371,9.772
15071.04059,3,0.699,-0.356,9.648,4,0.006,-0.002,-0.035,5,-39.225,-4.988,14.756,81,94.760,2.163,4.323,82,-0.002,-0.009,-0.119,83,0.739,-0.369,9.772
15071.08101,3,0.672,-0.203,9.660,4,-0.004,-0.011,-0.021,5,-39.544,-4.725,14.756,81,94.920,2.140,4.319,82,-0.040,0.009,-0.124,83,0.739,-0.365,9.772
15071.12143,3,0.761,-0.409,9.662,4,0.009,0.001,-0.024,5,-39.656,-4.556,14.944,81,95.022,2.101,4.315,82,-0.066,0.155,-0.112,83,0.738,-0.358,9.772
15071.16185,3,0.696,-0.330,9.682,4,-0.002,0.003,-0.030,5,-40.013,-4.669,15.056,81,95.106,2.098,4.320,82,0.022,-0.051,-0.110,83,0.739,-0.358,9.772
15071.20228,3,0.785,-0.385,9.672,4,0.008,-0.006,-0.040,5,-40.144,-4.669,15.244,81,95.198,2.091,4.314,82,-0.042,0.027,-0.090,83,0.738,-0.357,9.772
15071.24270,3,0.655,-0.418,9.674,4,0.008,0.005,-0.022,5,-39.656,-4.725,15.169,81,95.291,2.081,4.325,82,0.045,-0.030,-0.100,83,0.740,-0.355,9.772
15071.28312,3,0.725,-0.251,9.672,4,0.012,0.004,-0.012,5,-39.488,-4.913,14.944,81,95.382,2.073,4.317,82,-0.083,-0.064,-0.098,83,0.738,-0.354,9.772
15071.32354,3,0.723,-0.397,9.686,4,-0.002,-0.001,-0.013,5,-39.488,-4.988,15.244,81,95.443,2.045,4.311,82,-0.012,0.098,-0.101,83,0.737,-0.349,9.773
15071.36396,3,0.782,-0.426,9.619,4,-0.006,-0.001,-0.030,5,-39.113,-5.156,15.113,81,95.491,2.053,4.313,82,-0.014,-0.047,-0.087,83,0.737,-0.350,9.773
15071.40439,3,0.682,-0.430,9.672,4,0.012,0.006,-0.023,5,-39.113,-5.456,15.656,81,95.594,2.063,4.328,82,0.042,-0.074,-0.153,83,0.740,-0.352,9.772
15071.44481,3,0.703,-0.447,9.670,4,-0.009,0.001,0.007,5,-39.188,-5.288,15.656,81,95.715,2.062,4.328,82,-0.058,-0.078,-0.100,83,0.740,-0.352,9.772
15071.48523,3,0.696,-0.433,9.706,4,0.012,0.006,0.018,5,-38.925,-4.913,15.544,81,95.763,2.083,4.329,82,-0.037,-0.092,-0.102,83,0.740,-0.355,9.772
15071.52565,3,0.816,-0.303,9.715,4,0.008,0.005,0.011,5,-39.056,-4.669,15.656,81,95.749,2.096,4.322,82,-0.043,-0.075,-0.066,83,0.739,-0.358,9.772
15071.56607,3,0.687,-0.318,9.730,4,0.020,0.006,-0.007,5,-38.869,-4.313,15.169,81,95.691,2.076,4.325,82,0.076,0.051,-0.057,83,0.740,-0.354,9.772
15071.60650,3,0.735,-0.349,9.648,4,-0.005,-0.009,0.008,5,-39.188,-4.313,15.413,81,95.692,2.072,4.323,82,-0.052,0.036,-0.042,83,0.739,-0.354,9.772
15071.64692,3,0.761,-0.543,9.751,4,0.013,-0.015,0.006,5,-39.225,-4.444,15.356,81,95.686,2.074,4.326,82,-0.005,0.005,-0.124,83,0.740,-0.354,9.772
15071.68734,3,0.792,-0.373,9.691,4,0.021,-0.001,-0.016,5,-39.488,-4.013,15.169,81,95.661,2.131,4.338,82,0.019,-0.179,-0.021,83,0.742,-0.364,9.772
15071.72776,3,0.816,-0.308,9.641,4,0.003,0.002,-0.040,5,-39.656,-3.956,15.413,81,95.643,2.128,4.342,82,0.049,-0.010,-0.081,83,0.743,-0.363,9.772
15071.76818,3,0.758,-0.428,9.703,4,0.001,0.005,-0.049,5,-39.413,-4.088,15.788,81,95.676,2.118,4.352,82,0.072,0.053,-0.131,83,0.744,-0.361,9.772
15071.80861,3,0.701,-0.385,9.713,4,0.010,0.009,-0.041,5,-39.656,-4.013,15.825,81,95.742,2.132,4.365,82,0.012,-0.064,-0.068,83,0.746,-0.364,9.771
15071.84903,3,0.766,-0.342,9.686,4,0.006,0.015,-0.045,5,-39.544,-4.556,16.088,81,95.821,2.128,4.366,82,-0.046,-0.022,-0.059,83,0.747,-0.363,9.771
15071.88945,3,0.770,-0.275,9.686,4,0.009,0.012,-0.053,5,-39.788,-4.613,15.713,81,95.898,2.118,4.369,82,0.019,0.019,-0.086,83,0.747,-0.361,9.771
15071.92987,3,0.732,-0.148,9.615,4,-0.018,-0.024,-0.024,5,-39.713,-4.444,15.544,81,95.967,2.092,4.373,82,0.022,0.082,-0.086,83,0.748,-0.357,9.772
15071.97029,3,0.660,-0.188,9.701,4,-0.010,0.000,-0.004,5,-39.656,-4.444,15.488,81,96.030,2.057,4.375,82,-0.016,0.203,-0.157,83,0.748,-0.351,9.772
15072.01072,3,0.799,-0.349,9.694,4,0.006,0.008,-0.020,5,-39.788,-4.256,15.169,81,96.045,2.033,4.373,82,-0.088,0.159,-0.071,83,0.748,-0.347,9.772
15072.05114,3,0.770,-0.536,9.684,4,0.018,-0.007,-0.041,5,-40.013,-4.256,15.356,81,96.034,2.040,4.384,82,0.049,-0.001,-0.078,83,0.750,-0.348,9.772
15072.09156,3,0.770,-0.356,9.694,4,-0.002,-0.002,-0.060,5,-40.013,-4.313,15.488,81,96.056,2.064,4.398,82,0.018,-0.184,-0.087,83,0.752,-0.352,9.771
15072.13198,3,0.766,-0.210,9.665,4,-0.001,-0.020,-0.058,5,-39.788,-4.444,15.656,81,96.118,2.059,4.411,82,0.016,-0.005,-0.077,83,0.754,-0.351,9.771
15072.17240,3,0.737,-0.339,9.653,4,-0.002,0.012,-0.069,5,-39.188,-4.444,15.825,81,96.226,2.037,4.426,82,0.009,0.138,-0.106,83,0.757,-0.348,9.771
15072.21283,3,0.648,-0.485,9.679,4,0.015,-0.015,-0.064,5,-39.188,-4.388,15.656,81,96.338,2.037,4.433,82,-0.021,0.009,-0.118,83,0.758,-0.348,9.771
15072.25325,3,0.847,-0.303,9.665,4,-0.001,-0.001,-0.078,5,-39.188,-4.256,15.488,81,96.463,2.035,4.435,82,-0.110,-0.138,-0.092,83,0.758,-0.347,9.771
15072.29367,3,0.622,-0.538,9.706,4,-0.001,-0.003,-0.057,5,-39.113,-4.313,15.544,81,96.576,2.014,4.459,82,0.085,0.041,-0.106,83,0.762,-0.344,9.771
15072.33409,3,0.849,-0.284,9.651,4,0.001,-0.014,-0.073,5,-39.356,-4.669,15.169,81,96.696,2.048,4.454,82,-0.140,-0.189,-0.065,83,0.762,-0.349,9.771
15072.37451,3,0.646,-0.399,9.670,4,-0.009,-0.024,-0.088,5,-39.544,-4.669,15.488,81,96.791,2.024,4.474,82,0.084,0.061,-0.120,83,0.765,-0.345,9.771
15072.41494,3,0.838,-0.356,9.662,4,-0.000,0.003,-0.108,5,-40.013,-4.725,15.544,81,96.949,2.015,4.471,82,-0.118,-0.055,-0.101,83,0.764,-0.344,9.771
15072.45536,3,0.677,-0.234,9.674,4,0.003,-0.004,-0.080,5,-40.144,-4.856,15.488,81,97.108,1.997,4.495,82,0.069,-0.015,-0.109,83,0.769,-0.341,9.771
15072.49578,3,0.723,-0.462,9.665,4,-0.000,-0.016,-0.048,5,-40.725,-4.856,15.544,81,97.312,1.965,4.497,82,-0.092,0.101,-0.097,83,0.769,-0.335,9.771
15072.53620,3,0.660,-0.505,9.651,4,-0.001,-0.003,-0.040,5,-40.425,-5.213,15.656,81,97.368,1.984,4.499,82,-0.046,-0.124,-0.106,83,0.769,-0.338,9.771
15072.57662,3,0.782,-0.586,9.658,4,0.003,-0.002,-0.030,5,-40.313,-5.325,15.656,81,97.443,1.997,4.494,82,-0.108,-0.164,-0.120,83,0.768,-0.341,9.771
15072.61705,3,0.739,-0.545,9.677,4,-0.009,-0.007,-0.007,5,-40.313,-5.325,15.825,81,97.498,2.026,4.501,82,0.012,-0.240,-0.112,83,0.770,-0.346,9.770
15072.65747,3,0.682,-0.478,9.710,4,-0.002,0.000,0.036,5,-40.069,-5.156,16.013,81,97.478,2.060,4.502,82,-0.031,-0.194,-0.093,83,0.770,-0.351,9.770
15072.69789,3,0.794,-0.541,9.646,4,0.011,0.011,0.056,5,-40.144,-4.988,16.013,81,97.404,2.090,4.496,82,-0.087,-0.122,-0.060,83,0.769,-0.357,9.770
15072.73831,3,0.802,-0.703,9.718,4,0.004,0.008,0.018,5,-40.069,-4.856,16.013,81,97.219,2.132,4.482,82,0.028,-0.177,-0.124,83,0.766,-0.364,9.770
15072.77873,3,0.663,-0.268,9.667,4,-0.004,-0.005,0.008,5,-40.069,-4.613,16.088,81,97.091,2.207,4.484,82,0.035,-0.327,-0.051,83,0.767,-0.377,9.769
15072.81916,3,0.744,-0.066,9.679,4,0.006,0.003,0.008,5,-40.013,-4.669,16.088,81,97.024,2.182,4.471,82,-0.101,0.104,-0.103,83,0.764,-0.372,9.770
15072.85958,3,0.727,-0.215,9.677,4,-0.005,0.003,0.026,5,-40.069,-4.613,16.013,81,96.949,2.127,4.463,82,-0.019,0.297,-0.091,83,0.763,-0.363,9.770
15072.90000,3,0.747,-0.672,9.672,4,-0.006,0.008,0.060,5,-40.256,-4.613,16.013,81,96.861,2.105,4.455,82,-0.035,0.144,-0.093,83,0.762,-0.359,9.770
15072.94042,3,0.778,-0.665,9.682,4,0.003,0.004,0.019,5,-40.144,-4.988,15.956,81,96.699,2.175,4.450,82,-0.014,-0.301,-0.098,83,0.761,-0.371,9.770
15072.98084,3,0.691,-0.174,9.674,4,0.004,-0.004,0.004,5,-40.369,-4.913,15.788,81,96.572,2.234,4.443,82,0.018,-0.284,-0.088,83,0.760,-0.381,9.770
15073.02127,3,0.802,-0.057,9.660,4,0.008,0.003,-0.003,5,-39.956,-4.725,15.788,81,96.538,2.191,4.434,82,-0.067,0.200,-0.096,83,0.758,-0.374,9.770
15073.06169,3,0.751,-0.653,9.694,4,-0.004,0.002,-0.001,5,-39.844,-4.856,15.656,81,96.511,2.129,4.433,82,0.044,0.306,-0.111,83,0.758,-0.363,9.771
15073.10211,3,0.763,-0.593,9.667,4,-0.007,0.002,0.003,5,-40.069,-4.256,15.169,81,96.489,2.185,4.434,82,-0.007,-0.280,-0.076,83,0.758,-0.373,9.770
15073.14253,3,0.687,-0.287,9.665,4,0.009,0.003,0.011,5,-40.013,-4.313,15.356,81,96.445,2.233,4.433,82,0.005,-0.212,-0.103,83,0.758,-0.381,9.770
15073.18295,3,0.768,-0.155,9.701,4,0.010,0.003,-0.011,5,-40.313,-4.613,15.244,81,96.377,2.212,4.417,82,-0.068,0.090,-0.105,83,0.755,-0.377,9.770
15073.22338,3,0.816,-0.047,9.694,4,0.010,-0.001,-0.065,5,-40.688,-4.444,15.656,81,96.340,2.157,4.416,82,0.013,0.213,-0.070,83,0.755,-0.368,9.771
15073.26380,3,0.708,-0.325,9.670,4,0.010,-0.006,-0.072,5,-40.725,-4.856,16.256,81,96.408,2.081,4.427,82,0.059,0.308,-0.077,83,0.757,-0.355,9.771
15073.30422,3,0.773,-0.497,9.701,4,0.028,-0.004,-0.069,5,-40.725,-4.669,16.088,81,96.516,2.050,4.432,82,-0.050,0.025,-0.101,83,0.758,-0.350,9.771
15073.34464,3,0.572,-0.457,9.643,4,0.009,0.012,-0.013,5,-40.425,-4.856,16.256,81,96.670,2.003,4.462,82,0.010,-0.155,-0.070,83,0.763,-0.342,9.771
15073.38506,3,0.756,-0.478,9.684,4,0.004,-0.002,0.010,5,-40.256,-5.213,16.088,81,96.720,2.005,4.449,82,-0.189,-0.115,-0.128,83,0.761,-0.342,9.771
15073.42549,3,0.723,-0.069,9.655,4,-0.015,0.005,0.036,5,-40.313,-5.325,15.713,81,96.689,2.046,4.452,82,-0.005,-0.129,-0.087,83,0.761,-0.349,9.771
15073.46591,3,0.644,-0.284,9.787,4,0.020,0.026,0.108,5,-40.144,-5.644,15.825,81,96.639,1.992,4.440,82,-0.036,0.271,-0.116,83,0.759,-0.340,9.771
15073.50633,3,0.842,-0.550,9.646,4,0.022,0.001,0.078,5,-40.688,-5.456,15.825,81,96.509,2.023,4.407,82,-0.110,0.061,0.015,83,0.754,-0.345,9.772
15073.54675,3,0.751,-0.315,9.708,4,-0.011,0.008,0.039,5,-40.988,-5.044,15.825,81,96.293,2.070,4.395,82,0.090,-0.197,-0.125,83,0.751,-0.353,9.771
15073.58717,3,0.816,-0.421,9.670,4,-0.014,-0.007,0.046,5,-40.856,-4.669,16.013,81,96.148,2.080,4.379,82,0.002,0.040,-0.064,83,0.749,-0.355,9.772
15073.62760,3,0.663,-0.406,9.627,4,-0.004,-0.005,0.076,5,-41.044,-4.088,16.013,81,96.049,2.112,4.377,82,0.068,-0.061,-0.101,83,0.748,-0.360,9.771
15073.66802,3,0.732,-0.291,9.698,4,-0.009,-0.001,0.080,5,-40.688,-4.088,16.256,81,95.874,2.152,4.351,82,-0.081,-0.039,-0.144,83,0.744,-0.367,9.771
15073.70844,3,0.703,-0.212,9.646,4,-0.018,-0.007,0.051,5,-40.725,-3.713,16.369,81,95.635,2.147,4.339,82,-0.010,0.075,-0.074,83,0.742,-0.366,9.772
15073.74886,3,0.770,-0.119,9.629,4,-0.020,0.006,0.025,5,-40.725,-3.488,16.369,81,95.431,2.145,4.320,82,-0.036,0.154,-0.126,83,0.739,-0.366,9.772
15073.78928,3,0.715,-0.320,9.651,4,-0.004,-0.002,0.026,5,-40.613,-3.413,16.688,81,95.307,2.148,4.302,82,0.034,0.248,-0.143,83,0.736,-0.367,9.772
15073.82971,3,0.706,-0.694,9.677,4,0.005,-0.009,0.049,5,-40.613,-3.244,16.444,81,95.201,2.157,4.289,82,-0.018,0.048,-0.121,83,0.733,-0.368,9.772
15073.87013,3,0.751,-0.627,9.694,4,-0.021,-0.004,0.035,5,-40.425,-3.656,16.369,81,95.055,2.226,4.278,82,-0.026,-0.314,-0.095,83,0.732,-0.380,9.772
15073.91055,3,0.809,-0.893,9.737,4,-0.000,0.002,-0.013,5,-40.425,-3.844,16.088,81,94.910,2.291,4.269,82,0.021,-0.236,-0.078,83,0.730,-0.391,9.772
15073.95097,3,0.701,-0.289,9.694,4,0.002,0.002,-0.011,5,-40.725,-4.013,15.544,81,94.847,2.488,4.279,82,0.077,-0.468,-0.033,83,0.732,-0.424,9.770
15073.99139,3,0.720,-0.093,9.660,4,-0.002,0.010,0.030,5,-41.156,-3.956,15.713,81,94.870,2.479,4.274,82,-0.030,0.134,-0.076,83,0.731,-0.423,9.770
15074.03182,3,0.665,-0.280,9.737,4,0.018,-0.002,0.077,5,-41.344,-3.788,15.788,81,94.839,2.441,4.264,82,-0.009,0.323,-0.111,83,0.729,-0.416,9.771
15074.07224,3,0.713,-0.327,9.694,4,-0.007,0.011,0.113,5,-40.913,-3.656,15.825,81,94.684,2.416,4.244,82,-0.061,0.132,-0.034,83,0.726,-0.412,9.771
15074.11266,3,0.751,-0.251,9.653,4,-0.018,0.017,0.131,5,-41.344,-3.413,16.144,81,94.473,2.424,4.229,82,-0.010,0.087,-0.077,83,0.723,-0.414,9.771
15074.15308,3,0.696,-0.313,9.684,4,0.009,0.010,0.129,5,-41.456,-3.113,16.144,81,94.151,2.447,4.209,82,0.031,0.167,-0.118,83,0.720,-0.417,9.771
15074.19350,3,0.679,-0.440,9.658,4,0.018,-0.015,0.067,5,-41.044,-2.813,16.613,81,93.830,2.454,4.188,82,-0.020,0.106,-0.087,83,0.716,-0.419,9.771
15074.23392,3,0.747,-0.399,9.710,4,-0.033,-0.002,0.003,5,-41.513,-2.513,16.913,81,93.584,2.440,4.170,82,-0.034,-0.024,-0.114,83,0.713,-0.416,9.772
15074.27435,3,0.818,-0.603,9.696,4,-0.025,0.005,-0.015,5,-41.044,-2.756,16.744,81,93.449,2.455,4.168,82,0.034,0.020,-0.062,83,0.713,-0.419,9.772
15074.31477,3,0.622,-0.634,9.619,4,0.017,-0.007,-0.007,5,-40.913,-2.644,16.556,81,93.437,2.549,4.170,82,0.105,-0.168,-0.075,83,0.713,-0.435,9.771
15074.35519,3,0.720,-0.363,9.684,4,-0.008,0.000,-0.020,5,-40.988,-2.644,16.256,81,93.422,2.553,4.161,82,-0.089,-0.198,-0.152,83,0.711,-0.436,9.771
15074.39561,3,0.720,-0.133,9.749,4,-0.000,0.019,-0.036,5,-40.913,-2.588,16.088,81,93.406,2.487,4.160,82,0.009,0.061,-0.088,83,0.711,-0.424,9.772
15074.43603,3,0.766,-0.244,9.646,4,-0.012,-0.003,-0.002,5,-40.688,-2.513,16.013,81,93.452,2.433,4.161,82,0.008,0.282,-0.023,83,0.712,-0.415,9.772
15074.47646,3,0.713,-0.497,9.674,4,0.018,-0.002,0.038,5,-40.613,-2.756,16.369,81,93.476,2.453,4.162,82,0.054,0.175,-0.126,83,0.712,-0.419,9.772
15074.51688,3,0.694,-0.565,9.682,4,0.009,0.016,0.047,5,-40.988,-2.813,16.613,81,93.398,2.456,4.156,82,0.002,-0.078,-0.098,83,0.711,-0.419,9.772
15074.55730,3,0.684,-0.280,9.672,4,0.012,-0.016,0.051,5,-40.913,-2.888,16.913,81,93.286,2.460,4.148,82,-0.015,-0.145,-0.090,83,0.709,-0.420,9.772
15074.59772,3,0.660,-0.256,9.744,4,0.032,0.010,0.074,5,-41.344,-2.813,17.025,81,93.157,2.423,4.141,82,-0.024,0.133,-0.100,83,0.708,-0.413,9.772
15074.63814,3,0.833,-0.414,9.646,4,-0.013,-0.006,0.063,5,-41.513,-2.588,16.744,81,93.013,2.368,4.123,82,-0.045,0.148,-0.029,83,0.705,-0.404,9.773
15074.67857,3,0.699,-0.406,9.672,4,-0.011,-0.016,0.030,5,-41.288,-2.513,16.444,81,92.813,2.380,4.122,82,0.128,-0.008,-0.127,83,0.705,-0.406,9.773
15074.71899,3,0.826,-0.349,9.689,4,-0.006,-0.006,0.011,5,-41.456,-2.513,16.444,81,92.708,2.383,4.116,82,-0.005,0.001,-0.101,83,0.704,-0.407,9.773
15074.75941,3,0.713,-0.442,9.665,4,-0.002,-0.011,0.016,5,-41.156,-2.288,16.688,81,92.636,2.402,4.126,82,0.120,0.061,-0.084,83,0.706,-0.410,9.773
15074.79983,3,0.718,-0.471,9.662,4,0.006,0.000,0.008,5,-40.913,-2.325,16.988,81,92.566,2.392,4.119,82,0.009,-0.034,-0.108,83,0.704,-0.408,9.773
15074.84025,3,0.715,-0.452,9.727,4,0.009,-0.012,0.011,5,-40.725,-2.213,17.269,81,92.529,2.396,4.114,82,0.014,-0.062,-0.111,83,0.704,-0.409,9.773
15074.88068,3,0.720,-0.347,9.691,4,-0.007,0.000,0.029,5,-40.988,-1.913,17.213,81,92.489,2.402,4.116,82,0.011,-0.042,-0.046,83,0.704,-0.410,9.773
15074.92110,3,0.694,-0.406,9.667,4,0.003,0.002,0.042,5,-41.044,-1.688,17.269,81,92.414,2.396,4.115,82,0.016,0.062,-0.082,83,0.704,-0.409,9.773
15074.96152,3,0.711,-0.299,9.708,4,0.002,0.006,0.040,5,-41.456,-1.388,17.156,81,92.303,2.403,4.105,82,-0.008,0.004,-0.106,83,0.702,-0.410,9.773
15075.00194,3,0.730,-0.488,9.629,4,0.007,0.004,0.007,5,-41.344,-1.388,16.744,81,92.147,2.378,4.098,82,0.010,0.107,-0.065,83,0.701,-0.406,9.773
15075.04236,3,0.749,-0.294,9.691,4,-0.012,-0.013,-0.031,5,-41.156,-1.388,16.744,81,92.052,2.382,4.094,82,0.030,-0.081,-0.144,83,0.700,-0.406,9.773
15075.08279,3,0.687,-0.239,9.643,4,-0.001,-0.028,-0.014,5,-41.044,-1.388,16.444,81,92.064,2.351,4.109,82,0.046,0.107,-0.082,83,0.703,-0.401,9.773
15075.12321,3,0.675,-0.244,9.629,4,0.003,0.012,0.021,5,-40.988,-1.388,16.556,81,92.067,2.320,4.113,82,-0.016,0.157,-0.130,83,0.703,-0.396,9.773
15075.16363,3,0.655,-0.390,9.701,4,0.002,-0.006,0.023,5,-41.513,-1.313,16.988,81,92.000,2.285,4.106,82,-0.027,0.146,-0.145,83,0.702,-0.390,9.774
15075.20405,3,0.723,-0.337,9.665,4,0.019,0.009,-0.007,5,-41.644,-1.144,17.025,81,91.899,2.281,4.099,82,-0.046,-0.001,-0.073,83,0.701,-0.389,9.774
15075.24447,3,0.737,-0.459,9.677,4,-0.006,-0.002,-0.012,5,-41.756,-0.844,17.269,81,91.832,2.255,4.099,82,0.022,0.048,-0.109,83,0.701,-0.385,9.774
15075.28490,3,0.742,-0.397,9.718,4,0.015,0.019,0.001,5,-41.869,-0.788,17.456,81,91.796,2.256,4.105,82,0.035,-0.074,-0.097,83,0.702,-0.385,9.774
15075.32532,3,0.660,-0.713,9.674,4,0.004,-0.004,0.020,5,-42.056,-0.356,17.156,81,91.733,2.260,4.110,82,0.039,-0.011,-0.056,83,0.703,-0.386,9.774
15075.36574,3,0.768,-0.284,9.658,4,0.009,-0.001,0.008,5,-41.869,-0.713,16.913,81,91.623,2.312,4.106,82,-0.042,-0.318,-0.100,83,0.702,-0.395,9.774
15075.40616,3,0.655,-0.253,9.691,4,0.012,0.015,0.008,5,-42.356,-1.013,17.025,81,91.520,2.278,4.111,82,0.065,0.105,-0.116,83,0.703,-0.389,9.774
15075.44658,3,0.708,-0.361,9.624,4,-0.011,0.003,-0.010,5,-42.188,-0.788,16.856,81,91.463,2.241,4.101,82,-0.046,0.129,-0.083,83,0.701,-0.382,9.774
15075.48701,3,0.684,-0.409,9.698,4,0.007,0.009,-0.009,5,-41.813,-1.069,16.688,81,91.432,2.231,4.101,82,0.007,0.020,-0.150,83,0.701,-0.381,9.774
15075.52743,3,0.718,-0.253,9.665,4,0.018,0.017,0.023,5,-41.588,-0.788,16.613,81,91.410,2.231,4.095,82,-0.016,-0.028,-0.076,83,0.700,-0.381,9.774
15075.56785,3,0.629,-0.440,9.627,4,-0.010,0.008,0.038,5,-41.288,-0.713,16.556,81,91.341,2.203,4.094,82,0.018,0.123,-0.109,83,0.700,-0.376,9.774
15075.60827,3,0.787,-0.447,9.667,4,0.004,-0.002,0.025,5,-41.213,-0.713,16.913,81,91.221,2.199,4.081,82,-0.069,-0.065,-0.148,83,0.698,-0.375,9.775
15075.64869,3,0.667,-0.234,9.672,4,-0.024,-0.015,0.021,5,-41.288,-0.488,17.269,81,91.112,2.218,4.088,82,0.088,-0.069,-0.107,83,0.699,-0.378,9.774
15075.68912,3,0.799,-0.371,9.631,4,-0.010,-0.016,0.007,5,-41.813,-0.056,17.513,81,91.023,2.195,4.081,82,-0.031,0.141,-0.103,83,0.698,-0.375,9.775
15075.72954,3,0.701,-0.447,9.658,4,-0.006,0.001,0.007,5,-41.944,0.113,17.456,81,90.922,2.211,4.091,82,0.100,0.006,-0.143,83,0.700,-0.377,9.774
15075.76996,3,0.732,-0.421,9.660,4,0.001,-0.001,0.020,5,-42.356,0.113,17.156,81,90.822,2.217,4.085,82,0.002,-0.069,-0.116,83,0.699,-0.378,9.774
15075.81038,3,0.629,-0.485,9.689,4,0.009,0.000,0.035,5,-42.244,-0.113,17.213,81,90.713,2.229,4.089,82,0.033,-0.041,-0.114,83,0.699,-0.380,9.774
15075.85080,3,0.715,-0.291,9.715,4,0.015,0.015,0.041,5,-41.869,-0.656,17.344,81,90.590,2.242,4.074,82,-0.068,-0.102,-0.085,83,0.697,-0.383,9.774
15075.89123,3,0.747,-0.392,9.660,4,-0.000,0.000,0.032,5,-41.756,-0.844,17.588,81,90.478,2.228,4.073,82,0.019,0.089,-0.059,83,0.697,-0.380,9.774
15075.93165,3,0.749,-0.375,9.672,4,-0.006,0.000,0.031,5,-41.813,-0.525,17.756,81,90.369,2.228,4.071,82,0.051,-0.012,-0.115,83,0.696,-0.380,9.775
15075.97207,3,0.665,-0.303,9.670,4,-0.015,-0.002,0.060,5,-42.113,-0.244,17.813,81,90.278,2.244,4.068,82,0.053,0.008,-0.102,83,0.696,-0.383,9.774
15076.01249,3,0.682,-0.344,9.667,4,0.002,-0.004,0.064,5,-41.944,0.188,17.756,81,90.151,2.240,4.056,82,-0.029,0.079,-0.105,83,0.694,-0.382,9.775
15076.05291,3,0.797,-0.313,9.703,4,0.002,0.004,0.041,5,-41.813,0.356,17.644,81,89.948,2.240,4.046,82,-0.010,0.038,-0.108,83,0.692,-0.382,9.775
15076.09334,3,0.751,-0.371,9.665,4,-0.008,0.002,0.036,5,-41.644,0.413,17.644,81,89.797,2.230,4.052,82,0.104,0.068,-0.072,83,0.693,-0.381,9.775
15076.13376,3,0.687,-0.514,9.660,4,0.001,-0.004,0.021,5,-41.644,0.413,17.813,81,89.640,2.235,4.051,82,0.058,0.010,-0.110,83,0.693,-0.381,9.775
15076.17418,3,0.689,-0.380,9.698,4,-0.001,0.004,0.015,5,-41.288,0.244,17.944,81,89.548,2.257,4.048,82,-0.005,-0.129,-0.115,83,0.692,-0.385,9.775
15076.21460,3,0.766,-0.347,9.667,4,0.010,-0.009,-0.008,5,-41.344,0.356,17.869,81,89.486,2.255,4.048,82,-0.003,0.005,-0.077,83,0.692,-0.385,9.775
15076.25502,3,0.696,-0.488,9.686,4,0.019,0.002,-0.026,5,-41.156,0.356,17.869,81,89.455,2.247,4.058,82,0.072,0.037,-0.107,83,0.694,-0.383,9.775
15076.29545,3,0.732,-0.409,9.686,4,-0.001,-0.002,-0.016,5,-40.725,0.525,17.869,81,89.458,2.248,4.060,82,0.002,-0.104,-0.089,83,0.694,-0.384,9.775
15076.33587,3,0.682,-0.181,9.655,4,0.002,0.005,0.001,5,-41.213,0.713,18.113,81,89.469,2.240,4.064,82,0.037,-0.027,-0.089,83,0.695,-0.382,9.775
15076.37629,3,0.711,-0.368,9.662,4,0.007,0.000,-0.011,5,-40.988,0.713,18.356,81,89.440,2.217,4.061,82,-0.012,0.197,-0.120,83,0.695,-0.378,9.775
15076.41671,3,0.725,-0.351,9.710,4,0.012,0.009,-0.031,5,-41.288,0.656,18.244,81,89.393,2.201,4.062,82,0.016,0.008,-0.113,83,0.695,-0.376,9.775
15076.45713,3,0.682,-0.157,9.679,4,0.001,0.010,-0.035,5,-41.513,0.488,18.113,81,89.385,2.197,4.073,82,0.028,0.024,-0.065,83,0.697,-0.375,9.775
15076.49756,3,0.701,-0.423,9.660,4,0.009,-0.005,-0.046,5,-41.644,0.356,18.056,81,89.428,2.150,4.073,82,-0.014,0.210,-0.096,83,0.696,-0.367,9.775
15076.53798,3,0.706,-0.347,9.694,4,0.005,0.001,-0.051,5,-41.513,0.113,18.056,81,89.481,2.153,4.073,82,0.004,-0.056,-0.115,83,0.696,-0.367,9.775
15076.57840,3,0.682,-0.222,9.674,4,-0.010,-0.015,-0.037,5,-41.456,0.244,18.113,81,89.571,2.132,4.078,82,0.009,0.017,-0.081,83,0.697,-0.364,9.775
15076.61882,3,0.660,-0.270,9.689,4,0.002,-0.006,-0.022,5,-41.644,0.413,18.244,81,89.649,2.114,4.082,82,-0.016,0.139,-0.101,83,0.698,-0.361,9.775
15076.65924,3,0.737,-0.198,9.672,4,-0.016,0.001,-0.034,5,-41.813,0.656,18.113,81,89.663,2.093,4.081,82,-0.038,0.087,-0.086,83,0.698,-0.357,9.775
15076.69967,3,0.744,-0.418,9.662,4,-0.005,0.000,-0.052,5,-41.813,0.956,17.813,81,89.677,2.063,4.085,82,0.038,0.154,-0.103,83,0.699,-0.352,9.775
15076.74009,3,0.703,-0.438,9.646,4,0.001,-0.003,-0.062,5,-41.756,0.656,17.588,81,89.689,2.067,4.096,82,0.043,-0.065,-0.113,83,0.701,-0.353,9.775
15076.78051,3,0.713,-0.371,9.694,4,0.007,0.002,-0.059,5,-41.813,0.488,17.344,81,89.787,2.057,4.103,82,0.001,-0.087,-0.129,83,0.702,-0.351,9.775
15076.82093,3,0.758,-0.327,9.658,4,-0.009,-0.012,-0.049,5,-41.588,0.356,17.513,81,89.863,2.049,4.109,82,0.010,-0.021,-0.081,83,0.703,-0.350,9.775
15076.86135,3,0.679,-0.464,9.643,4,-0.000,-0.013,-0.027,5,-41.813,0.188,17.813,81,89.953,2.038,4.125,82,0.053,0.021,-0.117,83,0.705,-0.348,9.775
15076.90178,3,0.756,-0.598,9.698,4,0.029,0.016,-0.040,5,-41.944,0.656,18.056,81,89.983,2.042,4.122,82,-0.026,-0.115,-0.132,83,0.705,-0.349,9.775
15076.94220,3,0.699,-0.366,9.670,4,-0.012,0.009,-0.012,5,-41.513,0.525,18.113,81,90.012,2.063,4.137,82,0.049,-0.246,-0.077,83,0.707,-0.352,9.775
15076.98262,3,0.735,-0.344,9.686,4,-0.001,-0.004,-0.004,5,-41.213,0.488,17.944,81,89.996,2.061,4.138,82,-0.009,-0.014,-0.105,83,0.708,-0.352,9.775
15077.02304,3,0.706,-0.576,9.662,4,0.007,-0.004,-0.020,5,-41.044,0.488,17.644,81,89.941,2.061,4.145,82,0.026,0.008,-0.089,83,0.709,-0.352,9.775
15077.06346,3,0.794,-0.335,9.655,4,-0.002,-0.003,-0.040,5,-40.988,0.488,17.756,81,89.914,2.092,4.145,82,-0.003,-0.219,-0.113,83,0.709,-0.357,9.774
15077.10388,3,0.706,-0.428,9.646,4,-0.001,0.002,-0.028,5,-41.213,0.525,17.588,81,89.920,2.075,4.153,82,0.084,0.019,-0.119,83,0.710,-0.354,9.774
15077.14431,3,0.703,-0.371,9.691,4,0.006,0.005,-0.027,5,-41.344,0.844,17.869,81,89.940,2.093,4.158,82,-0.005,-0.071,-0.128,83,0.711,-0.357,9.774
15077.18473,3,0.718,-0.236,9.691,4,0.001,-0.003,-0.041,5,-41.344,0.713,17.944,81,89.935,2.081,4.160,82,-0.008,-0.016,-0.083,83,0.711,-0.355,9.774
15077.22515,3,0.732,-0.349,9.615,4,-0.001,0.001,-0.041,5,-41.588,0.488,17.869,81,89.946,2.048,4.163,82,0.006,0.114,-0.083,83,0.712,-0.350,9.775
15077.26557,3,0.648,-0.177,9.684,4,-0.007,-0.006,-0.030,5,-41.756,0.525,18.113,81,89.970,2.046,4.167,82,0.019,0.000,-0.159,83,0.713,-0.349,9.774
15077.30599,3,0.720,-0.368,9.672,4,0.005,-0.001,-0.030,5,-41.756,0.488,17.756,81,89.987,2.007,4.165,82,-0.064,0.166,-0.091,83,0.712,-0.343,9.775
15077.34642,3,0.804,-0.514,9.691,4,0.002,-0.006,-0.038,5,-42.113,0.525,17.869,81,90.017,2.003,4.170,82,0.007,-0.026,-0.103,83,0.713,-0.342,9.775
15077.38684,3,0.670,-0.291,9.670,4,0.004,0.000,-0.039,5,-41.869,0.525,17.756,81,90.040,2.025,4.187,82,0.088,-0.168,-0.083,83,0.716,-0.346,9.774
15077.42726,3,0.687,-0.196,9.643,4,0.002,0.005,-0.030,5,-41.813,0.788,17.813,81,90.063,2.007,4.188,82,-0.046,0.052,-0.104,83,0.716,-0.343,9.774
15077.46768,3,0.718,-0.430,9.682,4,-0.004,0.007,-0.031,5,-41.869,0.488,17.756,81,90.059,1.983,4.186,82,-0.029,0.142,-0.132,83,0.716,-0.338,9.775
15077.50810,3,0.701,-0.299,9.667,4,-0.005,-0.006,-0.039,5,-41.588,0.525,17.588,81,90.060,1.988,4.188,82,0.002,-0.091,-0.093,83,0.716,-0.339,9.775
15077.54853,3,0.699,-0.330,9.660,4,0.016,-0.005,-0.032,5,-41.513,0.525,17.813,81,90.086,1.971,4.192,82,-0.016,0.037,-0.108,83,0.717,-0.336,9.775
15077.58895,3,0.713,-0.371,9.679,4,0.002,-0.003,-0.044,5,-41.588,0.056,17.588,81,90.081,1.960,4.188,82,-0.017,0.004,-0.115,83,0.716,-0.334,9.775
15077.62937,3,0.679,-0.320,9.660,4,0.001,-0.011,-0.049,5,-41.588,0.188,17.813,81,90.130,1.954,4.197,82,-0.005,-0.037,-0.096,83,0.718,-0.333,9.775
15077.66979,3,0.725,-0.380,9.694,4,0.009,-0.001,-0.020,5,-41.644,0.056,18.413,81,90.188,1.938,4.199,82,-0.039,0.011,-0.115,83,0.718,-0.331,9.775
15077.71021,3,0.701,-0.426,9.698,4,0.004,0.007,0.008,5,-41.588,0.056,18.525,81,90.222,1.936,4.205,82,0.006,-0.050,-0.081,83,0.719,-0.330,9.775
15077.75064,3,0.691,-0.488,9.674,4,-0.007,0.006,0.023,5,-41.588,0.113,18.656,81,90.199,1.952,4.204,82,-0.018,-0.093,-0.077,83,0.719,-0.333,9.775
15077.79106,3,0.699,-0.366,9.667,4,0.004,-0.011,0.005,5,-41.044,-0.056,18.244,81,90.121,1.991,4.201,82,-0.027,-0.148,-0.100,83,0.718,-0.340,9.774
15077.83148,3,0.766,-0.495,9.662,4,0.001,-0.003,0.004,5,-41.456,-0.056,18.056,81,90.029,1.992,4.193,82,-0.018,-0.026,-0.107,83,0.717,-0.340,9.774
15077.87190,3,0.663,-0.270,9.670,4,0.006,-0.001,0.006,5,-41.044,0.113,17.813,81,89.986,2.013,4.200,82,0.048,-0.152,-0.112,83,0.718,-0.343,9.774
15077.91232,3,0.670,-0.177,9.713,4,-0.001,0.002,0.010,5,-40.725,-0.113,17.944,81,89.938,1.992,4.189,82,-0.053,0.070,-0.104,83,0.716,-0.340,9.775
15077.95275,3,0.761,-0.236,9.641,4,0.002,0.003,-0.002,5,-41.213,0.056,17.756,81,89.894,1.962,4.181,82,-0.045,0.158,-0.062,83,0.715,-0.335,9.775
15077.99317,3,0.689,-0.366,9.672,4,-0.013,-0.002,0.003,5,-41.213,0.188,17.756,81,89.843,1.952,4.183,82,0.046,0.097,-0.134,83,0.715,-0.333,9.775
15078.03359,3,0.670,-0.299,9.667,4,0.006,-0.005,-0.011,5,-41.813,-0.056,18.113,81,89.808,1.955,4.179,82,-0.026,-0.032,-0.103,83,0.715,-0.334,9.775
15078.07401,3,0.770,-0.332,9.684,4,0.006,0.007,-0.024,5,-41.756,0.113,17.588,81,89.790,1.950,4.175,82,-0.044,0.034,-0.108,83,0.714,-0.333,9.775
15078.11443,3,0.682,-0.320,9.636,4,-0.005,0.000,0.003,5,-41.456,0.188,17.756,81,89.795,1.935,4.186,82,0.054,-0.002,-0.091,83,0.716,-0.330,9.775
15078.15486,3,0.660,-0.227,9.677,4,0.007,0.000,0.009,5,-41.756,0.244,17.644,81,89.782,1.927,4.181,82,-0.033,0.009,-0.139,83,0.715,-0.329,9.775
15078.19528,3,0.701,-0.402,9.684,4,0.015,0.011,0.002,5,-41.756,0.356,17.513,81,89.745,1.903,4.169,82,-0.053,0.098,-0.098,83,0.713,-0.325,9.775
15078.23570,3,0.794,-0.268,9.674,4,-0.013,-0.015,-0.029,5,-41.944,0.488,17.869,81,89.709,1.909,4.166,82,-0.011,-0.076,-0.091,83,0.712,-0.326,9.775
15078.27612,3,0.574,-0.129,9.672,4,0.031,0.010,-0.006,5,-41.869,0.113,17.944,81,89.702,1.896,4.178,82,0.080,0.056,-0.101,83,0.714,-0.324,9.775
15078.31654,3,0.758,-0.392,9.684,4,0.006,0.006,-0.011,5,-41.456,-0.056,18.113,81,89.707,1.858,4.162,82,-0.138,0.188,-0.104,83,0.712,-0.317,9.776
15078.35697,3,0.682,-0.222,9.639,4,-0.010,-0.006,-0.020,5,-41.156,0.113,17.944,81,89.694,1.853,4.161,82,0.046,-0.076,-0.092,83,0.712,-0.316,9.776
15078.39739,3,0.725,-0.236,9.682,4,-0.004,-0.002,-0.025,5,-41.213,0.056,17.813,81,89.714,1.836,4.157,82,-0.029,0.091,-0.137,83,0.711,-0.313,9.776
15078.43781,3,0.670,-0.253,9.636,4,0.011,-0.006,-0.049,5,-41.156,0.413,17.756,81,89.740,1.807,4.162,82,0.013,0.073,-0.094,83,0.712,-0.308,9.776
15078.47823,3,0.696,-0.406,9.720,4,0.001,-0.001,-0.073,5,-41.044,0.488,17.213,81,89.785,1.790,4.160,82,-0.041,0.052,-0.140,83,0.711,-0.305,9.776
15078.51865,3,0.758,-0.253,9.689,4,0.001,0.028,-0.069,5,-41.156,0.356,17.025,81,89.891,1.795,4.168,82,-0.017,-0.100,-0.056,83,0.713,-0.306,9.776
15078.55907,3,0.651,-0.210,9.665,4,0.016,0.013,-0.057,5,-40.856,0.356,17.156,81,90.031,1.784,4.176,82,0.044,0.051,-0.087,83,0.714,-0.305,9.776
15078.59950,3,0.744,-0.076,9.670,4,-0.000,0.016,-0.065,5,-40.988,0.188,17.213,81,90.113,1.751,4.172,82,-0.062,0.089,-0.111,83,0.713,-0.299,9.776
15078.63992,3,0.773,-0.277,9.686,4,0.002,0.004,-0.065,5,-41.213,0.056,17.456,81,90.230,1.698,4.180,82,0.029,0.214,-0.106,83,0.715,-0.290,9.776
15078.68034,3,0.667,-0.351,9.710,4,-0.000,-0.015,-0.086,5,-41.213,0.056,17.513,81,90.328,1.694,4.193,82,0.056,0.012,-0.090,83,0.717,-0.289,9.776
15078.72076,3,0.773,-0.200,9.591,4,-0.016,0.018,-0.077,5,-41.288,0.056,17.344,81,90.446,1.685,4.192,82,-0.050,-0.063,-0.066,83,0.717,-0.288,9.776
15078.76118,3,0.739,-0.303,9.682,4,0.008,-0.037,-0.106,5,-41.288,-0.056,16.688,81,90.570,1.657,4.204,82,0.054,0.083,-0.185,83,0.719,-0.283,9.776
15078.80161,3,0.677,-0.306,9.682,4,0.009,-0.016,-0.116,5,-41.456,-0.188,16.913,81,90.731,1.636,4.229,82,0.016,-0.024,-0.094,83,0.723,-0.279,9.776
15078.84203,3,0.711,-0.351,9.677,4,0.008,-0.012,-0.109,5,-41.756,-0.244,16.856,81,90.946,1.613,4.238,82,-0.048,-0.031,-0.094,83,0.725,-0.275,9.776
15078.88245,3,0.701,-0.598,9.708,4,0.004,0.005,-0.092,5,-41.944,-0.488,16.613,81,91.159,1.604,4.254,82,-0.016,-0.077,-0.099,83,0.727,-0.274,9.776
15078.92287,3,0.715,-0.457,9.658,4,0.007,0.005,-0.096,5,-41.813,-0.525,16.688,81,91.372,1.635,4.265,82,-0.028,-0.319,-0.068,83,0.729,-0.279,9.776
15078.96329,3,0.706,-0.574,9.682,4,0.004,-0.003,-0.082,5,-41.869,-0.525,16.088,81,91.543,1.633,4.277,82,-0.016,-0.178,-0.117,83,0.731,-0.279,9.775
15079.00372,3,0.782,-0.363,9.658,4,0.016,0.013,-0.085,5,-41.813,-0.844,16.088,81,91.684,1.666,4.289,82,-0.027,-0.290,-0.093,83,0.733,-0.284,9.775
15079.04414,3,0.672,-0.488,9.722,4,-0.009,-0.001,-0.053,5,-41.813,-1.013,15.956,81,91.835,1.657,4.309,82,0.045,-0.080,-0.117,83,0.737,-0.283,9.775
15079.08456,3,0.708,-0.524,9.605,4,0.004,0.014,-0.026,5,-42.113,-1.444,16.088,81,91.912,1.699,4.314,82,-0.066,-0.198,-0.053,83,0.738,-0.290,9.775
15079.12498,3,0.696,-0.356,9.713,4,0.003,-0.014,0.006,5,-41.944,-1.613,16.369,81,91.947,1.729,4.311,82,-0.029,-0.229,-0.170,83,0.737,-0.295,9.774
15079.16540,3,0.730,-0.323,9.682,4,0.005,-0.011,0.015,5,-41.944,-1.613,15.956,81,91.945,1.730,4.309,82,-0.041,-0.061,-0.062,83,0.737,-0.295,9.774
15079.20583,3,0.689,-0.385,9.615,4,0.005,-0.028,-0.010,5,-41.813,-1.613,15.656,81,91.880,1.736,4.311,82,-0.007,-0.027,-0.092,83,0.737,-0.296,9.774
15079.24625,3,0.723,-0.320,9.667,4,0.004,0.010,-0.025,5,-41.644,-1.556,15.113,81,91.856,1.749,4.300,82,-0.046,-0.087,-0.159,83,0.735,-0.298,9.774
15079.28667,3,0.766,-0.270,9.684,4,0.002,-0.009,-0.004,5,-41.813,-1.388,15.113,81,91.882,1.742,4.301,82,-0.012,-0.023,-0.107,83,0.735,-0.297,9.775
15079.32709,3,0.667,-0.184,9.648,4,-0.010,0.006,0.018,5,-41.813,-1.444,15.244,81,91.872,1.737,4.315,82,0.028,0.026,-0.090,83,0.738,-0.296,9.774
15079.36751,3,0.708,-0.203,9.665,4,-0.008,0.003,0.029,5,-41.644,-1.688,15.544,81,91.819,1.724,4.301,82,-0.068,0.110,-0.127,83,0.735,-0.294,9.775
15079.40794,3,0.696,-0.229,9.612,4,-0.005,0.005,0.043,5,-41.456,-1.688,16.013,81,91.751,1.706,4.296,82,-0.027,0.088,-0.110,83,0.735,-0.291,9.775
15079.44836,3,0.648,-0.366,9.722,4,0.024,0.019,0.036,5,-41.156,-1.856,15.825,81,91.669,1.699,4.290,82,-0.037,0.061,-0.163,83,0.733,-0.290,9.775
15079.48878,3,0.735,-0.097,9.682,4,-0.017,-0.009,0.048,5,-40.988,-1.913,15.788,81,91.597,1.703,4.274,82,-0.083,-0.075,-0.053,83,0.731,-0.291,9.775
15079.52920,3,0.725,-0.445,9.665,4,0.003,-0.016,0.031,5,-41.213,-1.744,15.713,81,91.512,1.671,4.265,82,0.006,0.188,-0.093,83,0.729,-0.285,9.775
15079.56962,3,0.679,-0.560,9.674,4,-0.001,0.003,0.028,5,-41.288,-1.688,15.244,81,91.396,1.715,4.270,82,-0.005,-0.152,-0.110,83,0.730,-0.293,9.775
15079.61005,3,0.727,-0.438,9.686,4,0.010,-0.006,0.034,5,-41.288,-1.744,15.413,81,91.343,1.759,4.257,82,-0.049,-0.260,-0.101,83,0.728,-0.300,9.775
15079.65047,3,0.706,-0.418,9.660,4,0.013,-0.007,0.018,5,-41.456,-1.744,15.244,81,91.271,1.785,4.255,82,-0.001,-0.133,-0.089,83,0.728,-0.305,9.775
15079.69089,3,0.691,-0.318,9.689,4,0.002,0.002,0.020,5,-41.288,-1.556,15.488,81,91.231,1.802,4.252,82,-0.021,-0.111,-0.115,83,0.727,-0.308,9.775
15079.73131,3,0.706,-0.394,9.718,4,0.004,0.001,0.023,5,-41.588,-1.856,15.544,81,91.194,1.803,4.246,82,-0.035,-0.010,-0.086,83,0.726,-0.308,9.775
15079.77173,3,0.720,-0.282,9.658,4,0.003,-0.011,0.024,5,-41.513,-1.856,15.356,81,91.172,1.824,4.243,82,-0.019,-0.083,-0.057,83,0.725,-0.311,9.775
15079.81216,3,0.708,-0.148,9.682,4,-0.010,0.006,0.038,5,-41.456,-1.913,15.244,81,91.127,1.827,4.239,82,-0.005,0.030,-0.117,83,0.725,-0.312,9.775
15079.85258,3,0.694,-0.438,9.670,4,-0.012,0.004,0.031,5,-41.213,-1.913,14.813,81,91.086,1.807,4.233,82,-0.016,0.160,-0.093,83,0.724,-0.308,9.775
15079.89300,3,0.682,-0.373,9.686,4,0.011,-0.012,0.008,5,-41.288,-1.744,14.344,81,91.042,1.833,4.228,82,-0.029,-0.125,-0.105,83,0.723,-0.313,9.775
15079.93342,3,0.679,-0.332,9.672,4,0.004,-0.009,0.014,5,-40.856,-1.856,14.756,81,91.039,1.832,4.224,82,-0.040,-0.060,-0.089,83,0.722,-0.313,9.775
15079.97384,3,0.655,-0.421,9.679,4,0.006,-0.009,0.023,5,-40.988,-1.856,14.644,81,91.055,1.836,4.221,82,-0.043,-0.019,-0.103,83,0.722,-0.313,9.775
15080.01426,3,0.730,-0.232,9.665,4,0.006,-0.009,0.009,5,-40.856,-1.856,15.113,81,91.040,1.848,4.217,82,-0.066,-0.106,-0.096,83,0.721,-0.315,9.775
15080.05469,3,0.691,-0.416,9.706,4,0.002,-0.001,-0.001,5,-40.856,-1.969,15.169,81,91.038,1.820,4.218,82,0.009,0.078,-0.110,83,0.721,-0.311,9.775
15080.09511,3,0.727,-0.303,9.646,4,-0.008,-0.007,-0.001,5,-41.156,-2.044,15.169,81,91.062,1.828,4.221,82,-0.031,-0.104,-0.069,83,0.722,-0.312,9.775
15080.13553,3,0.679,-0.227,9.658,4,-0.011,-0.005,0.001,5,-40.988,-1.969,15.356,81,91.086,1.822,4.225,82,0.005,0.008,-0.129,83,0.723,-0.311,9.775
15080.17595,3,0.665,-0.557,9.662,4,0.007,0.007,0.007,5,-41.456,-1.969,14.944,81,91.108,1.795,4.223,82,-0.043,0.079,-0.117,83,0.722,-0.306,9.775
15080.21637,3,0.711,-0.306,9.651,4,0.002,-0.003,0.012,5,-41.344,-1.913,15.056,81,91.140,1.832,4.225,82,-0.057,-0.244,-0.113,83,0.722,-0.313,9.775
15080.25680,3,0.627,-0.141,9.722,4,0.005,-0.007,0.022,5,-41.513,-1.613,14.888,81,91.158,1.828,4.230,82,-0.012,0.006,-0.124,83,0.723,-0.312,9.775
15080.29722,3,0.713,-0.280,9.612,4,0.003,-0.013,0.022,5,-41.456,-1.556,15.113,81,91.140,1.775,4.233,82,-0.097,0.162,-0.053,83,0.724,-0.303,9.775
15080.33764,3,0.732,-0.224,9.718,4,-0.000,-0.006,-0.005,5,-41.344,-1.744,15.356,81,91.104,1.756,4.235,82,-0.011,0.020,-0.163,83,0.724,-0.300,9.775
15080.37806,3,0.665,-0.232,9.674,4,0.001,-0.027,-0.006,5,-41.456,-1.688,15.244,81,91.101,1.723,4.260,82,0.004,0.070,-0.057,83,0.728,-0.294,9.775
15080.41848,3,0.711,-0.402,9.662,4,0.022,-0.009,-0.007,5,-41.588,-2.156,15.169,81,91.127,1.701,4.274,82,-0.066,0.058,-0.101,83,0.731,-0.290,9.775
15080.45891,3,0.718,-0.220,9.691,4,0.011,-0.014,-0.013,5,-41.456,-2.325,14.888,81,91.167,1.678,4.293,82,-0.023,-0.116,-0.113,83,0.734,-0.286,9.775
15080.49933,3,0.754,-0.452,9.708,4,0.021,-0.015,0.010,5,-41.044,-2.588,15.056,81,91.236,1.604,4.321,82,-0.021,0.054,-0.084,83,0.739,-0.274,9.775
15080.53975,3,0.713,-0.682,9.641,4,0.026,-0.006,0.020,5,-40.913,-2.813,15.056,81,91.274,1.587,4.363,82,0.008,-0.181,-0.066,83,0.746,-0.271,9.774
15080.58017,3,1.075,-0.126,9.742,4,0.003,0.003,0.007,5,-40.556,-2.813,15.113,81,91.312,1.634,4.394,82,-0.038,-0.403,-0.133,83,0.751,-0.279,9.774
15080.62059,3,1.103,0.294,9.385,4,-0.010,-0.040,-0.009,5,-40.688,-2.888,15.113,81,91.346,1.553,4.482,82,0.309,0.139,-0.031,83,0.766,-0.265,9.773
15080.66102,3,0.397,-0.452,9.842,4,0.003,0.016,-0.030,5,-40.913,-2.644,14.944,81,91.429,1.494,4.497,82,0.334,0.549,-0.388,83,0.769,-0.255,9.773
15080.70144,3,0.751,-0.325,9.627,4,0.005,-0.020,-0.004,5,-40.913,-2.813,14.888,81,91.536,1.529,4.442,82,-0.362,-0.191,0.068,83,0.760,-0.261,9.774
15080.74186,3,0.993,0.052,9.593,4,-0.017,0.003,-0.015,5,-41.213,-2.644,14.944,81,91.638,1.516,4.447,82,-0.009,-0.066,-0.147,83,0.760,-0.259,9.774
15080.78228,3,0.536,-0.476,9.727,4,-0.008,0.010,-0.032,5,-40.988,-2.813,15.056,81,91.715,1.470,4.471,82,0.228,0.303,-0.181,83,0.765,-0.251,9.774
15080.82270,3,0.715,-0.303,9.698,4,-0.005,-0.002,-0.001,5,-40.556,-3.169,15.056,81,91.860,1.530,4.446,82,-0.224,-0.215,-0.047,83,0.760,-0.261,9.774
15080.86313,3,0.950,-0.198,9.672,4,-0.001,-0.001,0.004,5,-40.556,-3.113,14.944,81,91.950,1.542,4.446,82,-0.045,-0.040,-0.076,83,0.760,-0.263,9.774
15080.90355,3,0.615,-0.215,9.686,4,0.002,-0.014,-0.005,5,-40.144,-3.056,14.888,81,92.011,1.522,4.467,82,0.186,0.062,-0.101,83,0.764,-0.260,9.773
15080.94397,3,0.806,-0.244,9.691,4,0.016,-0.009,0.006,5,-40.013,-3.113,14.813,81,92.079,1.516,4.450,82,-0.146,0.044,-0.088,83,0.761,-0.259,9.774
15080.98439,3,0.782,-0.423,9.648,4,-0.011,-0.007,-0.003,5,-40.144,-2.925,14.888,81,92.136,1.503,4.458,82,0.044,0.012,-0.083,83,0.762,-0.256,9.774
15081.02481,3,0.691,-0.234,9.684,4,0.005,0.002,-0.002,5,-40.369,-3.113,15.113,81,92.189,1.530,4.458,82,0.020,-0.162,-0.125,83,0.762,-0.261,9.773
15081.06524,3,0.742,-0.186,9.696,4,-0.010,-0.004,0.018,5,-40.725,-3.244,15.244,81,92.241,1.522,4.453,82,-0.070,0.026,-0.090,83,0.761,-0.260,9.774
15081.10566,3,0.814,0.019,9.684,4,0.003,0.012,0.023,5,-40.725,-3.169,15.356,81,92.282,1.514,4.458,82,-0.020,0.072,-0.078,83,0.762,-0.258,9.774
15081.14608,3,0.672,-0.220,9.674,4,-0.002,0.004,0.035,5,-40.913,-3.169,15.169,81,92.301,1.469,4.457,82,0.052,0.270,-0.090,83,0.762,-0.251,9.774
15081.18650,3,0.756,-0.260,9.610,4,-0.031,-0.002,0.042,5,-40.688,-3.113,15.113,81,92.294,1.471,4.444,82,-0.088,0.031,-0.100,83,0.760,-0.251,9.774
15081.22692,3,0.926,-0.323,9.665,4,0.005,-0.003,0.013,5,-40.556,-3.056,15.169,81,92.248,1.493,4.445,82,-0.004,-0.005,-0.164,83,0.760,-0.255,9.774
15081.26735,3,0.641,-0.181,9.722,4,0.020,-0.007,0.009,5,-40.988,-3.056,15.413,81,92.231,1.499,4.462,82,0.163,-0.067,-0.109,83,0.763,-0.256,9.774
15081.30777,3,0.806,-0.258,9.658,4,-0.010,-0.005,0.008,5,-40.913,-3.169,15.713,81,92.253,1.470,4.439,82,-0.118,0.070,-0.052,83,0.759,-0.251,9.774
15081.34819,3,0.823,-0.234,9.679,4,0.002,-0.005,0.006,5,-40.688,-3.113,15.656,81,92.283,1.470,4.443,82,0.046,-0.007,-0.116,83,0.760,-0.251,9.774
15081.38861,3,0.708,-0.308,9.648,4,0.009,0.002,-0.001,5,-40.725,-3.488,15.544,81,92.314,1.480,4.447,82,0.063,0.019,-0.095,83,0.760,-0.253,9.774
15081.42903,3,0.727,-0.363,9.670,4,0.004,-0.004,0.006,5,-40.425,-3.713,15.244,81,92.377,1.485,4.436,82,-0.051,-0.055,-0.126,83,0.759,-0.253,9.774
15081.46945,3,0.744,-0.188,9.677,4,-0.018,-0.012,0.013,5,-40.725,-3.413,15.544,81,92.443,1.496,4.429,82,-0.030,-0.108,-0.104,83,0.757,-0.255,9.774
15081.50988,3,0.804,-0.428,9.706,4,0.016,0.009,0.007,5,-40.856,-3.656,15.825,81,92.485,1.500,4.430,82,-0.013,0.068,-0.097,83,0.757,-0.256,9.774
15081.55030,3,0.811,-0.117,9.672,4,-0.018,0.005,0.001,5,-40.425,-3.713,15.956,81,92.524,1.532,4.429,82,0.047,-0.167,-0.068,83,0.757,-0.261,9.774
15081.59072,3,0.694,-0.232,9.660,4,-0.013,0.011,-0.002,5,-40.556,-3.656,16.144,81,92.622,1.523,4.422,82,0.055,0.143,-0.102,83,0.756,-0.260,9.774
15081.63114,3,0.768,-0.359,9.670,4,-0.009,0.012,-0.003,5,-40.369,-4.013,15.713,81,92.658,1.548,4.401,82,-0.059,0.032,-0.114,83,0.753,-0.264,9.774
15081.67156,3,0.703,-0.349,9.651,4,-0.002,-0.003,-0.012,5,-40.369,-4.088,16.088,81,92.774,1.582,4.389,82,0.017,-0.089,-0.104,83,0.751,-0.270,9.774
15081.71199,3,0.768,-0.153,9.696,4,-0.008,0.010,-0.016,5,-40.556,-4.388,16.256,81,92.881,1.584,4.370,82,-0.044,-0.079,-0.123,83,0.747,-0.270,9.774
15081.75241,3,0.814,-0.200,9.682,4,-0.006,-0.001,0.002,5,-40.369,-4.313,16.613,81,93.010,1.571,4.368,82,0.021,0.115,-0.078,83,0.747,-0.268,9.774
15081.79283,3,0.828,-0.138,9.658,4,-0.007,0.016,-0.001,5,-40.688,-4.313,16.369,81,93.104,1.572,4.366,82,0.068,0.068,-0.092,83,0.747,-0.268,9.775
15081.83325,3,0.902,-0.246,9.694,4,-0.000,0.028,-0.014,5,-40.856,-4.313,16.144,81,93.182,1.579,4.354,82,0.084,0.131,-0.117,83,0.744,-0.269,9.775
15081.87367,3,0.859,-0.191,9.615,4,-0.033,0.006,-0.027,5,-40.725,-4.256,16.088,81,93.273,1.598,4.350,82,0.158,0.027,-0.081,83,0.744,-0.273,9.775
15081.91410,3,0.701,0.021,9.665,4,-0.040,0.024,-0.035,5,-40.725,-4.613,15.788,81,93.387,1.617,4.317,82,0.121,0.085,-0.160,83,0.738,-0.276,9.775
15081.95452,3,0.440,-0.361,9.684,4,-0.010,-0.078,-0.002,5,-40.369,-4.613,16.013,81,93.546,1.614,4.269,82,-0.029,0.296,-0.111,83,0.730,-0.275,9.776
15081.99494,3,0.373,-0.193,9.756,4,-0.013,0.015,0.071,5,-40.613,-4.613,16.088,81,93.659,1.689,4.191,82,-0.277,-0.073,-0.092,83,0.717,-0.288,9.776
15082.03536,3,0.682,0.014,9.579,4,-0.013,-0.040,0.130,5,-40.425,-4.444,16.013,81,93.636,1.686,4.169,82,-0.340,0.095,-0.020,83,0.713,-0.288,9.776
15082.07578,3,0.802,-0.193,9.686,4,0.009,-0.019,0.136,5,-40.256,-4.388,16.369,81,93.451,1.662,4.147,82,-0.027,0.298,-0.198,83,0.709,-0.284,9.777
15082.11621,3,0.488,-0.232,9.761,4,-0.005,-0.052,0.182,5,-40.256,-4.913,16.444,81,93.260,1.652,4.122,82,0.097,0.089,-0.091,83,0.705,-0.282,9.777
15082.15663,3,0.629,-0.265,9.536,4,0.003,-0.032,0.226,5,-40.013,-4.913,16.613,81,92.958,1.658,4.070,82,-0.208,0.051,-0.017,83,0.696,-0.283,9.778
15082.19705,3,0.936,-0.689,9.806,4,0.011,-0.014,0.136,5,-39.956,-5.288,17.025,81,92.646,1.675,4.036,82,-0.061,0.021,-0.242,83,0.690,-0.286,9.778
15082.23747,3,0.775,-0.533,9.662,4,0.023,-0.020,0.068,5,-40.013,-5.213,17.213,81,92.325,1.745,4.037,82,0.246,-0.391,0.028,83,0.690,-0.298,9.778
15082.27789,3,0.732,-0.440,9.655,4,0.007,-0.030,0.034,5,-40.256,-4.913,17.869,81,92.265,1.786,4.032,82,0.086,-0.228,-0.116,83,0.689,-0.305,9.778
15082.31832,3,0.917,-0.414,9.698,4,-0.016,0.016,0.014,5,-40.144,-4.988,17.869,81,92.275,1.809,4.031,82,0.043,-0.131,-0.122,83,0.689,-0.309,9.778
15082.35874,3,0.610,-0.576,9.619,4,-0.013,0.018,0.023,5,-40.425,-4.856,18.356,81,92.353,1.830,4.049,82,0.224,-0.102,-0.079,83,0.692,-0.312,9.777
15082.39916,3,0.838,-0.512,9.691,4,0.007,0.014,0.007,5,-40.313,-4.856,18.656,81,92.432,1.886,4.029,82,-0.079,-0.254,-0.158,83,0.689,-0.322,9.777
15082.43958,3,0.778,-0.265,9.677,4,0.004,0.006,-0.003,5,-40.425,-5.044,18.956,81,92.516,1.906,4.053,82,0.145,-0.187,-0.086,83,0.693,-0.325,9.777
15082.48000,3,0.608,-0.289,9.655,4,-0.009,0.005,0.010,5,-40.369,-5.156,19.256,81,92.642,1.889,4.062,82,0.083,0.057,-0.100,83,0.695,-0.322,9.777
15082.52043,3,0.703,-0.208,9.696,4,0.002,-0.009,-0.004,5,-40.369,-5.325,19.256,81,92.779,1.898,4.050,82,-0.085,0.035,-0.122,83,0.693,-0.324,9.777
15082.56085,3,0.775,-0.299,9.670,4,0.003,0.012,0.012,5,-40.856,-5.588,19.313,81,92.901,1.870,4.049,82,0.011,0.111,-0.081,83,0.692,-0.319,9.777
15082.60127,3,0.610,-0.148,9.684,4,0.008,0.006,0.018,5,-40.556,-5.869,19.313,81,93.036,1.862,4.054,82,0.082,0.019,-0.107,83,0.693,-0.318,9.777
15082.64169,3,0.735,-0.229,9.653,4,0.009,0.010,0.013,5,-40.613,-5.869,19.613,81,93.158,1.839,4.041,82,-0.081,0.166,-0.093,83,0.691,-0.314,9.777
15082.68211,3,0.802,-0.339,9.674,4,-0.000,0.003,-0.024,5,-40.369,-5.756,19.744,81,93.260,1.816,4.044,82,0.044,0.081,-0.124,83,0.691,-0.310,9.777
15082.72254,3,0.636,-0.251,9.670,4,0.007,0.021,0.006,5,-39.956,-5.325,20.025,81,93.438,1.812,4.054,82,0.109,-0.030,-0.103,83,0.693,-0.309,9.777
15082.76296,3,0.703,-0.406,9.689,4,0.003,-0.009,-0.015,5,-40.013,-5.213,20.156,81,93.557,1.823,4.051,82,-0.057,0.060,-0.107,83,0.693,-0.311,9.777
15082.80338,3,0.794,-0.275,9.643,4,-0.013,-0.007,-0.054,5,-40.013,-5.156,20.269,81,93.658,1.835,4.051,82,0.010,-0.093,-0.088,83,0.693,-0.313,9.777
15082.84380,3,0.653,-0.186,9.660,4,-0.022,-0.020,-0.065,5,-40.013,-5.325,20.588,81,93.826,1.814,4.062,82,0.099,0.035,-0.134,83,0.695,-0.310,9.777
15082.88422,3,0.747,-0.502,9.694,4,0.004,0.009,-0.040,5,-40.313,-5.756,20.513,81,94.063,1.794,4.068,82,-0.043,0.120,-0.117,83,0.696,-0.306,9.777
15082.92465,3,0.696,-0.397,9.662,4,0.003,0.006,-0.027,5,-40.144,-5.813,20.644,81,94.273,1.816,4.073,82,0.051,-0.192,-0.083,83,0.696,-0.310,9.777
15082.96507,3,0.689,-0.188,9.689,4,-0.008,0.005,-0.014,5,-40.144,-5.944,20.644,81,94.459,1.822,4.072,82,-0.000,-0.086,-0.115,83,0.696,-0.311,9.777
15083.00549,3,0.703,-0.181,9.646,4,-0.018,-0.006,-0.012,5,-40.144,-5.813,20.588,81,94.597,1.790,4.072,82,-0.007,0.118,-0.088,83,0.696,-0.306,9.777
15083.04591,3,0.679,-0.258,9.686,4,0.003,0.001,0.010,5,-39.956,-6.056,20.888,81,94.717,1.774,4.076,82,0.006,0.122,-0.131,83,0.697,-0.303,9.777
15083.08633,3,0.711,-0.277,9.686,4,-0.002,-0.006,0.020,5,-40.013,-6.056,20.925,81,94.803,1.770,4.072,82,-0.017,0.044,-0.091,83,0.696,-0.302,9.777
15083.12676,3,0.720,-0.212,9.665,4,0.001,0.001,0.026,5,-39.956,-5.869,21.356,81,94.862,1.763,4.069,82,0.015,0.024,-0.091,83,0.696,-0.301,9.777
15083.16718,3,0.730,-0.280,9.682,4,-0.000,-0.004,0.001,5,-40.013,-6.056,21.656,81,94.881,1.751,4.065,82,0.025,0.087,-0.112,83,0.695,-0.299,9.777
15083.20760,3,0.703,-0.248,9.679,4,-0.009,-0.004,-0.018,5,-40.069,-5.944,21.788,81,94.939,1.744,4.067,82,0.034,0.018,-0.095,83,0.696,-0.298,9.777
15083.24802,3,0.747,-0.351,9.682,4,0.010,-0.003,-0.044,5,-40.144,-6.056,21.844,81,95.032,1.736,4.069,82,0.007,0.048,-0.098,83,0.696,-0.296,9.777
15083.28844,3,0.682,-0.143,9.672,4,-0.014,0.000,-0.053,5,-40.144,-6.113,21.713,81,95.189,1.738,4.080,82,0.049,-0.054,-0.095,83,0.698,-0.297,9.777
15083.32886,3,0.667,-0.133,9.636,4,-0.015,-0.017,-0.038,5,-40.013,-6.244,21.956,81,95.393,1.699,4.079,82,-0.016,0.147,-0.106,83,0.698,-0.290,9.778
15083.36929,3,0.720,-0.344,9.667,4,-0.016,-0.007,-0.036,5,-39.956,-6.188,22.256,81,95.566,1.683,4.074,82,-0.030,0.154,-0.142,83,0.697,-0.287,9.778
15083.40971,3,0.754,-0.462,9.698,4,0.009,-0.007,-0.042,5,-39.788,-6.244,22.556,81,95.725,1.697,4.081,82,0.022,-0.054,-0.110,83,0.698,-0.290,9.777
15083.45013,3,0.735,-0.339,9.689,4,0.018,0.007,-0.046,5,-39.544,-6.488,22.988,81,95.880,1.729,4.096,82,0.054,-0.167,-0.079,83,0.700,-0.295,9.777
15083.49055,3,0.634,-0.186,9.670,4,-0.013,-0.004,-0.022,5,-39.844,-6.488,23.288,81,96.055,1.724,4.099,82,0.034,-0.045,-0.088,83,0.701,-0.294,9.777
15083.53097,3,0.677,-0.200,9.643,4,-0.010,-0.006,-0.007,5,-39.956,-7.088,23.644,81,96.248,1.704,4.091,82,-0.066,0.105,-0.107,83,0.700,-0.291,9.777
15083.57140,3,0.802,-0.263,9.670,4,-0.000,0.006,-0.030,5,-39.956,-7.088,24.056,81,96.364,1.698,4.088,82,-0.022,0.090,-0.134,83,0.699,-0.290,9.777
15083.61182,3,0.663,-0.205,9.646,4,-0.008,0.014,-0.030,5,-39.844,-7.013,24.056,81,96.478,1.691,4.098,82,0.101,0.026,-0.107,83,0.701,-0.289,9.777
15083.65224,3,0.699,-0.315,9.701,4,-0.007,0.009,-0.036,5,-39.844,-7.013,24.544,81,96.637,1.677,4.094,82,-0.037,0.081,-0.131,83,0.700,-0.286,9.777
15083.69266,3,0.706,-0.368,9.658,4,-0.001,0.002,-0.053,5,-39.956,-6.656,25.013,81,96.797,1.688,4.096,82,-0.001,-0.027,-0.076,83,0.700,-0.288,9.777
15083.73308,3,0.679,-0.265,9.691,4,0.008,0.005,-0.062,5,-40.144,-6.656,25.313,81,96.955,1.701,4.097,82,0.005,-0.078,-0.119,83,0.701,-0.290,9.777
15083.77351,3,0.735,-0.177,9.653,4,-0.012,-0.007,-0.064,5,-40.069,-6.656,25.613,81,97.124,1.691,4.104,82,-0.023,0.024,-0.086,83,0.702,-0.289,9.777
15083.81393,3,0.670,-0.277,9.662,4,-0.005,-0.009,-0.056,5,-40.556,-6.544,25.913,81,97.296,1.662,4.108,82,0.032,0.107,-0.124,83,0.703,-0.284,9.777
15083.85435,3,0.691,-0.229,9.674,4,-0.008,-0.007,-0.054,5,-40.144,-6.544,26.456,81,97.458,1.656,4.114,82,-0.033,0.006,-0.115,83,0.704,-0.283,9.777
15083.89477,3,0.696,-0.275,9.636,4,-0.001,0.006,-0.053,5,-40.069,-6.656,26.588,81,97.585,1.649,4.116,82,-0.013,0.052,-0.103,83,0.704,-0.281,9.777
15083.93519,3,0.641,-0.229,9.665,4,-0.004,-0.003,-0.037,5,-40.613,-6.544,26.756,81,97.713,1.636,4.116,82,-0.008,0.004,-0.141,83,0.704,-0.279,9.777
15083.97562,3,0.663,-0.141,9.660,4,-0.000,0.006,-0.025,5,-40.425,-6.713,26.756,81,97.808,1.620,4.113,82,-0.062,0.047,-0.113,83,0.703,-0.276,9.777
15084.01604,3,0.608,-0.244,9.725,4,0.007,0.016,0.006,5,-40.913,-6.544,26.888,81,97.910,1.599,4.107,82,-0.039,0.132,-0.118,83,0.702,-0.273,9.778
15084.05646,3,0.660,-0.191,9.691,4,0.011,-0.005,0.019,5,-40.913,-6.544,27.244,81,97.924,1.595,4.090,82,-0.091,0.028,-0.053,83,0.699,-0.272,9.778
15084.09688,3,0.636,-0.332,9.713,4,0.004,0.004,0.040,5,-40.725,-6.488,27.544,81,97.894,1.589,4.085,82,-0.039,0.080,-0.087,83,0.699,-0.271,9.778
15084.13730,3,0.727,-0.306,9.718,4,0.021,0.024,0.028,5,-40.556,-6.356,27.788,81,97.810,1.610,4.072,82,-0.060,-0.057,-0.065,83,0.696,-0.275,9.778
15084.17773,3,0.754,-0.524,9.665,4,-0.009,-0.015,0.006,5,-40.688,-6.488,27.956,81,97.736,1.615,4.068,82,0.031,-0.030,-0.060,83,0.696,-0.276,9.778
15084.21815,3,0.792,-0.217,9.694,4,-0.006,0.003,-0.024,5,-40.856,-6.413,28.388,81,97.683,1.653,4.074,82,0.057,-0.242,-0.113,83,0.697,-0.282,9.778
15084.25857,3,0.761,-0.385,9.682,4,0.010,0.004,-0.055,5,-40.856,-6.244,28.988,81,97.695,1.647,4.087,82,0.093,0.064,-0.084,83,0.699,-0.281,9.778
15084.29899,3,0.718,-0.450,9.682,4,0.003,-0.001,-0.076,5,-41.156,-6.188,29.456,81,97.787,1.661,4.101,82,0.060,-0.102,-0.095,83,0.701,-0.283,9.777
15084.33941,3,0.677,-0.289,9.713,4,-0.010,0.015,-0.068,5,-40.913,-6.113,29.925,81,97.917,1.683,4.108,82,0.016,-0.163,-0.095,83,0.702,-0.287,9.777
15084.37984,3,0.658,-0.600,9.615,4,0.005,-0.016,-0.045,5,-40.725,-6.188,30.356,81,98.027,1.683,4.115,82,-0.027,-0.002,-0.064,83,0.704,-0.287,9.777
15084.42026,3,0.735,-0.435,9.677,4,0.003,-0.001,-0.034,5,-40.369,-6.113,30.713,81,98.124,1.721,4.125,82,-0.047,-0.306,-0.162,83,0.705,-0.294,9.777
15084.46068,3,0.699,-0.428,9.701,4,-0.008,-0.004,-0.035,5,-40.613,-6.188,31.256,81,98.163,1.734,4.130,82,0.029,-0.139,-0.100,83,0.706,-0.296,9.777
15084.50110,3,0.691,-0.306,9.636,4,-0.006,0.007,-0.012,5,-40.313,-6.188,31.856,81,98.198,1.759,4.141,82,-0.009,-0.128,-0.075,83,0.708,-0.300,9.776
15084.54152,3,0.679,-0.373,9.708,4,0.001,0.000,0.001,5,-40.369,-5.944,32.156,81,98.190,1.762,4.135,82,-0.016,-0.005,-0.140,83,0.707,-0.301,9.776
15084.58195,3,0.718,-0.315,9.674,4,0.002,0.001,-0.005,5,-40.725,-5.813,32.644,81,98.143,1.776,4.129,82,-0.027,-0.070,-0.068,83,0.706,-0.303,9.776
15084.62237,3,0.742,-0.239,9.641,4,-0.013,0.004,-0.010,5,-40.556,-5.456,32.569,81,98.077,1.784,4.138,82,0.010,-0.011,-0.102,83,0.708,-0.304,9.776
15084.66279,3,0.679,-0.339,9.694,4,0.001,-0.006,0.014,5,-40.913,-5.513,32.344,81,98.019,1.775,4.137,82,0.035,0.064,-0.135,83,0.708,-0.303,9.776
15084.70321,3,0.653,-0.440,9.715,4,-0.006,0.005,0.060,5,-40.725,-5.588,32.344,81,97.939,1.785,4.135,82,-0.028,-0.034,-0.082,83,0.707,-0.305,9.776
15084.74363,3,0.672,-0.421,9.646,4,-0.001,0.009,0.063,5,-40.913,-5.756,32.044,81,97.783,1.836,4.129,82,-0.053,-0.127,-0.061,83,0.706,-0.313,9.776
15084.78406,3,0.737,-0.315,9.703,4,-0.000,-0.004,0.040,5,-40.725,-5.588,32.756,81,97.566,1.870,4.113,82,-0.031,-0.102,-0.130,83,0.703,-0.319,9.776
15084.82448,3,0.617,-0.208,9.667,4,-0.000,0.001,0.049,5,-40.725,-5.325,32.888,81,97.407,1.871,4.116,82,0.033,0.004,-0.073,83,0.704,-0.319,9.776
15084.86490,3,0.651,-0.239,9.631,4,-0.004,0.011,0.076,5,-40.613,-4.988,33.225,81,97.246,1.855,4.100,82,-0.084,0.108,-0.109,83,0.701,-0.317,9.776
15084.90532,3,0.826,-0.327,9.715,4,-0.007,0.001,0.040,5,-40.369,-4.613,33.488,81,96.998,1.864,4.086,82,-0.048,0.079,-0.145,83,0.699,-0.318,9.777
15084.94574,3,0.706,-0.313,9.651,4,-0.007,0.002,0.031,5,-40.256,-4.388,33.356,81,96.787,1.874,4.097,82,0.125,-0.007,-0.061,83,0.701,-0.320,9.776
15084.98617,3,0.751,-0.330,9.684,4,0.019,0.019,0.009,5,-39.844,-3.844,33.844,81,96.619,1.880,4.090,82,0.007,0.008,-0.125,83,0.699,-0.321,9.776
15085.02659,3,0.672,-0.320,9.708,4,0.005,0.002,0.001,5,-40.013,-3.713,34.013,81,96.470,1.881,4.093,82,0.051,-0.009,-0.092,83,0.700,-0.321,9.776
15085.06701,3,0.672,-0.260,9.684,4,0.016,-0.001,0.001,5,-40.069,-3.713,34.425,81,96.362,1.887,4.093,82,-0.028,0.002,-0.068,83,0.700,-0.322,9.776
15085.10743,3,0.694,-0.232,9.670,4,0.005,0.009,0.009,5,-39.956,-3.788,34.388,81,96.259,1.879,4.090,82,-0.027,0.061,-0.092,83,0.699,-0.321,9.776
15085.14785,3,0.696,-0.332,9.651,4,-0.000,0.001,0.008,5,-40.688,-3.356,34.556,81,96.151,1.871,4.091,82,-0.006,0.087,-0.106,83,0.700,-0.319,9.776
15085.18828,3,0.675,-0.459,9.689,4,-0.011,0.008,0.016,5,-40.688,-2.888,34.913,81,96.011,1.882,4.092,82,-0.004,-0.011,-0.125,83,0.700,-0.321,9.776
15085.22870,3,0.701,-0.505,9.684,4,-0.011,0.015,0.025,5,-40.369,-2.456,35.044,81,95.844,1.913,4.089,82,-0.024,-0.133,-0.087,83,0.699,-0.326,9.776
15085.26912,3,0.718,-0.464,9.708,4,-0.007,-0.005,0.025,5,-40.556,-1.744,35.756,81,95.663,1.969,4.090,82,0.002,-0.169,-0.092,83,0.699,-0.336,9.776
15085.30954,3,0.713,-0.514,9.696,4,0.013,-0.009,0.012,5,-40.144,-1.913,35.813,81,95.439,2.000,4.092,82,0.018,-0.123,-0.068,83,0.700,-0.341,9.776
15085.34996,3,0.749,-0.347,9.646,4,-0.004,-0.004,-0.010,5,-40.144,-1.744,35.813,81,95.227,2.038,4.092,82,0.013,-0.166,-0.079,83,0.700,-0.348,9.775
15085.39039,3,0.689,-0.119,9.665,4,-0.014,-0.016,-0.030,5,-40.425,-1.744,36.113,81,94.966,2.046,4.095,82,0.049,0.002,-0.129,83,0.700,-0.349,9.775
15085.43081,3,0.663,-0.234,9.619,4,-0.016,-0.004,-0.029,5,-40.688,-1.856,36.188,81,94.942,2.008,4.098,82,-0.012,0.224,-0.111,83,0.701,-0.343,9.776
15085.47123,3,0.742,-0.282,9.672,4,-0.010,0.002,-0.052,5,-41.044,-1.444,36.188,81,94.832,1.992,4.091,82,-0.037,0.106,-0.157,83,0.700,-0.340,9.776
15085.51165,3,0.744,-0.363,9.696,4,0.004,0.017,-0.052,5,-41.044,-1.144,36.188,81,94.655,1.976,4.104,82,0.040,0.055,-0.104,83,0.702,-0.337,9.776
15085.55207,3,0.660,-0.332,9.648,4,-0.005,-0.009,-0.018,5,-41.156,-1.144,36.056,81,94.583,1.974,4.120,82,0.039,-0.026,-0.079,83,0.705,-0.337,9.775
15085.59250,3,0.701,-0.390,9.686,4,-0.015,-0.013,0.003,5,-41.213,-0.844,36.225,81,94.489,1.974,4.111,82,-0.043,0.005,-0.128,83,0.703,-0.337,9.776
15085.63292,3,0.672,-0.442,9.672,4,-0.010,-0.011,0.009,5,-40.988,-0.788,36.488,81,94.308,1.989,4.116,82,-0.003,-0.050,-0.090,83,0.704,-0.340,9.775
15085.67334,3,0.684,-0.404,9.634,4,-0.010,-0.005,0.020,5,-41.044,-0.713,36.488,81,94.113,2.019,4.118,82,-0.032,-0.097,-0.103,83,0.704,-0.345,9.775
15085.71376,3,0.725,-0.502,9.706,4,0.025,-0.003,0.006,5,-41.044,-0.413,37.144,81,93.904,2.038,4.116,82,-0.020,-0.056,-0.141,83,0.704,-0.348,9.775
15085.75418,3,0.610,-0.301,9.691,4,-0.016,-0.009,0.020,5,-41.156,-0.056,37.144,81,93.693,2.059,4.124,82,0.020,-0.151,-0.069,83,0.705,-0.351,9.775
15085.79461,3,0.703,-0.169,9.610,4,-0.012,-0.011,-0.009,5,-41.044,0.244,37.556,81,93.486,2.044,4.115,82,-0.094,0.048,-0.084,83,0.704,-0.349,9.775
15085.83503,3,0.701,-0.301,9.660,4,-0.011,-0.002,-0.007,5,-41.288,0.413,37.913,81,93.281,2.034,4.118,82,-0.001,0.178,-0.165,83,0.704,-0.347,9.775
15085.87545,3,0.634,-0.069,9.634,4,-0.023,-0.012,0.005,5,-41.644,0.788,37.688,81,93.080,2.026,4.118,82,-0.003,0.045,-0.115,83,0.704,-0.346,9.775
15085.91587,3,0.581,-0.220,9.655,4,-0.001,-0.009,0.045,5,-41.213,0.788,37.725,81,92.863,1.990,4.115,82,-0.070,0.271,-0.141,83,0.704,-0.340,9.775
15085.95629,3,0.639,-0.277,9.658,4,-0.012,-0.005,0.064,5,-41.344,0.844,37.613,81,92.592,1.986,4.099,82,-0.120,0.119,-0.121,83,0.701,-0.339,9.776
15085.99672,3,0.641,-0.378,9.691,4,0.004,0.002,0.081,5,-41.513,1.256,37.556,81,92.243,1.994,4.087,82,-0.060,0.063,-0.118,83,0.699,-0.340,9.776
15086.03714,3,0.847,-0.464,9.658,4,0.005,-0.016,0.025,5,-41.156,1.388,37.613,81,91.884,2.008,4.073,82,-0.056,-0.035,-0.085,83,0.697,-0.343,9.776
15086.07756,3,0.797,-0.373,9.646,4,-0.001,-0.016,-0.026,5,-41.644,1.856,37.613,81,91.530,2.028,4.082,82,0.149,-0.118,-0.118,83,0.698,-0.346,9.776
15086.11798,3,0.699,-0.442,9.703,4,0.007,-0.003,-0.055,5,-41.644,2.213,37.913,81,91.332,2.032,4.098,82,0.096,-0.026,-0.129,83,0.701,-0.347,9.775
15086.15840,3,0.761,-0.359,9.698,4,-0.000,-0.001,-0.069,5,-41.513,2.644,37.913,81,91.192,2.035,4.102,82,-0.003,-0.095,-0.072,83,0.702,-0.347,9.775
15086.19883,3,0.675,-0.397,9.684,4,0.011,0.004,-0.073,5,-41.756,2.813,38.044,81,91.077,2.021,4.121,82,0.056,-0.014,-0.077,83,0.705,-0.345,9.775
15086.23925,3,0.689,-0.330,9.730,4,0.006,0.004,-0.052,5,-41.944,3.244,38.044,81,91.011,2.021,4.125,82,-0.030,-0.052,-0.091,83,0.705,-0.345,9.775
15086.27967,3,0.679,-0.212,9.696,4,0.017,-0.014,-0.025,5,-41.944,3.544,37.688,81,90.853,2.006,4.134,82,-0.018,0.012,-0.045,83,0.707,-0.342,9.775
15086.32009,3,0.699,-0.047,9.639,4,0.011,-0.001,-0.028,5,-42.188,3.713,37.256,81,90.674,1.962,4.140,82,-0.029,0.123,-0.079,83,0.708,-0.335,9.775
15086.36051,3,0.711,-0.268,9.722,4,-0.001,-0.005,-0.035,5,-42.244,4.256,37.144,81,90.460,1.908,4.139,82,-0.009,0.279,-0.137,83,0.708,-0.326,9.776
15086.40093,3,0.653,-0.131,9.617,4,-0.001,0.002,-0.011,5,-41.869,4.256,37.425,81,90.220,1.890,4.148,82,0.002,0.054,-0.054,83,0.709,-0.322,9.776
15086.44136,3,0.737,-0.354,9.662,4,0.005,-0.014,0.004,5,-41.813,4.669,37.613,81,89.996,1.856,4.146,82,-0.056,0.186,-0.159,83,0.709,-0.317,9.776
15086.48178,3,0.754,-0.313,9.708,4,0.001,-0.006,0.014,5,-41.944,5.044,37.725,81,89.703,1.877,4.152,82,0.027,-0.034,-0.114,83,0.710,-0.320,9.776
15086.52220,3,0.711,-0.342,9.660,4,-0.009,0.009,0.018,5,-41.869,5.513,37.425,81,89.366,1.872,4.159,82,0.043,0.006,-0.068,83,0.711,-0.319,9.776
15086.56262,3,0.679,-0.315,9.617,4,-0.009,0.009,-0.001,5,-41.944,6.413,37.144,81,89.007,1.871,4.162,82,-0.001,-0.023,-0.116,83,0.712,-0.319,9.776
15086.60304,3,0.663,-0.402,9.660,4,-0.000,0.002,-0.014,5,-42.544,7.088,37.144,81,88.652,1.867,4.154,82,-0.031,0.004,-0.159,83,0.710,-0.319,9.776
15086.64347,3,0.718,-0.411,9.689,4,0.001,-0.014,-0.026,5,-42.188,7.688,37.144,81,88.316,1.859,4.156,82,-0.048,-0.085,-0.116,83,0.711,-0.317,9.776
15086.68389,3,0.847,-0.040,9.631,4,-0.010,0.017,-0.069,5,-42.713,8.213,37.144,81,87.976,1.867,4.153,82,0.008,-0.092,-0.087,83,0.710,-0.319,9.776
15086.72431,3,0.718,-0.471,9.715,4,0.021,0.005,-0.077,5,-42.956,8.456,37.144,81,87.691,1.821,4.167,82,0.134,0.271,-0.145,83,0.713,-0.311,9.776
15086.76473,3,0.359,-0.100,9.727,4,0.019,0.012,0.059,5,-42.844,8.756,37.144,81,87.444,1.817,4.183,82,0.003,-0.161,-0.061,83,0.715,-0.310,9.776
15086.80515,3,0.581,-0.198,9.612,4,-0.017,0.012,0.125,5,-43.369,9.169,36.844,81,87.062,1.756,4.142,82,-0.349,0.200,-0.049,83,0.708,-0.300,9.776
15086.84558,3,0.768,-0.538,9.773,4,0.011,0.010,0.135,5,-42.956,9.413,36.656,81,86.428,1.776,4.116,82,-0.123,0.105,-0.165,83,0.704,-0.303,9.777
15086.88600,3,0.890,-0.804,9.634,4,0.012,-0.002,0.100,5,-43.313,10.088,36.113,81,85.731,1.889,4.108,82,0.066,-0.216,-0.003,83,0.702,-0.322,9.776
15086.92642,3,0.634,-0.656,9.713,4,-0.010,-0.018,0.097,5,-43.313,10.444,35.513,81,85.078,1.972,4.104,82,0.188,-0.467,-0.142,83,0.702,-0.337,9.776
15086.96684,3,0.826,-0.644,9.727,4,-0.000,0.021,0.086,5,-43.256,10.613,34.913,81,84.454,2.040,4.087,82,-0.065,-0.308,-0.063,83,0.699,-0.348,9.776
15087.00726,3,0.885,-0.588,9.624,4,0.002,0.022,0.007,5,-43.444,11.044,34.725,81,83.799,2.127,4.077,82,0.129,-0.281,-0.048,83,0.697,-0.363,9.775
15087.04769,3,0.773,-0.521,9.725,4,-0.008,-0.011,-0.030,5,-43.256,11.156,34.425,81,83.323,2.149,4.090,82,0.186,-0.221,-0.151,83,0.699,-0.367,9.775
15087.08811,3,0.605,-0.418,9.686,4,-0.001,-0.003,0.014,5,-43.144,11.288,34.256,81,82.999,2.185,4.107,82,0.071,-0.148,-0.049,83,0.702,-0.373,9.774
15087.12853,3,0.679,-0.244,9.662,4,0.013,0.002,0.052,5,-43.013,11.756,34.144,81,82.659,2.214,4.091,82,-0.095,-0.040,-0.088,83,0.700,-0.378,9.774
15087.16895,3,0.632,-0.066,9.734,4,0.008,0.009,0.092,5,-43.088,11.756,33.844,81,82.216,2.170,4.081,82,-0.019,0.126,-0.113,83,0.698,-0.370,9.775
15087.20937,3,0.629,-0.236,9.605,4,0.004,0.000,0.120,5,-43.088,11.813,34.256,81,81.714,2.084,4.068,82,-0.064,0.290,-0.042,83,0.696,-0.356,9.775
15087.24980,3,0.758,-0.121,9.713,4,0.008,0.017,0.089,5,-42.956,12.056,34.069,81,81.137,2.075,4.042,82,-0.062,0.118,-0.171,83,0.691,-0.354,9.776
15087.29022,3,0.675,0.014,9.588,4,-0.059,0.013,0.114,5,-42.956,12.113,33.956,81,80.590,2.022,4.041,82,0.067,0.224,-0.063,83,0.691,-0.345,9.776
15087.33064,3,0.782,-0.438,9.715,4,0.006,0.014,0.079,5,-43.013,12.488,34.013,81,80.060,2.056,4.006,82,-0.010,0.365,-0.188,83,0.685,-0.351,9.776
15087.37106,3,0.861,-0.598,9.756,4,0.026,0.005,0.014,5,-42.656,13.088,33.544,81,79.354,2.165,3.989,82,0.100,-0.068,-0.061,83,0.682,-0.370,9.776
15087.41148,3,0.720,-0.299,9.603,4,0.038,-0.009,-0.007,5,-42.656,13.256,33.544,81,78.979,2.201,4.010,82,0.175,-0.222,-0.019,83,0.686,-0.376,9.775
15087.45191,3,0.682,-0.275,9.660,4,-0.027,0.006,0.005,5,-42.656,13.613,33.656,81,78.696,2.106,4.025,82,0.032,0.060,-0.173,83,0.688,-0.359,9.776
15087.49233,3,0.723,-0.289,9.710,4,-0.008,-0.004,0.003,5,-42.788,13.913,33.113,81,78.400,2.124,4.023,82,-0.006,0.088,-0.116,83,0.688,-0.363,9.776
15087.53275,3,0.811,-0.615,9.610,4,-0.018,0.009,-0.015,5,-42.656,13.913,32.925,81,78.111,2.151,4.024,82,0.035,0.078,-0.066,83,0.688,-0.367,9.776
15087.57317,3,0.605,-0.289,9.667,4,-0.053,0.017,0.024,5,-43.013,13.913,32.813,81,77.846,2.191,4.028,82,0.122,-0.241,-0.165,83,0.689,-0.374,9.775
15087.61359,3,0.507,0.043,9.780,4,0.008,-0.021,0.109,5,-43.256,14.156,32.644,81,77.571,2.283,4.007,82,-0.080,0.101,-0.108,83,0.685,-0.390,9.775
15087.65402,3,0.679,-0.224,9.574,4,0.012,0.010,0.135,5,-42.956,13.856,32.644,81,77.146,2.256,3.986,82,-0.175,0.428,0.005,83,0.682,-0.385,9.775
15087.69444,3,0.773,-0.234,9.660,4,-0.054,0.005,0.106,5,-43.144,14.156,32.925,81,76.651,2.214,3.959,82,0.002,0.154,-0.202,83,0.677,-0.378,9.776
15087.73486,3,0.612,-0.076,9.648,4,-0.062,-0.001,0.147,5,-42.844,14.344,32.644,81,76.132,2.303,3.948,82,0.098,0.159,-0.115,83,0.675,-0.393,9.775
15087.77528,3,0.629,0.045,9.418,4,-0.167,0.002,0.184,5,-42.488,14.644,32.456,81,75.671,2.388,3.927,82,-0.060,0.332,-0.127,83,0.672,-0.408,9.775
15087.81570,3,0.735,-0.497,9.612,4,-0.207,-0.011,0.162,5,-42.656,15.244,32.044,81,75.079,2.610,3.896,82,-0.037,0.490,-0.356,83,0.666,-0.445,9.774
15087.85612,3,0.826,-0.265,9.909,4,-0.113,-0.016,0.129,5,-42.656,15.788,31.425,81,74.399,3.157,3.899,82,0.068,0.042,-0.157,83,0.667,-0.539,9.769
15087.89655,3,0.826,-0.562,9.770,4,-0.010,-0.035,0.067,5,-42.713,15.956,31.425,81,73.841,3.488,3.929,82,0.154,0.330,0.144,83,0.672,-0.595,9.765
15087.93697,3,0.914,-0.861,9.490,4,-0.025,-0.015,-0.031,5,-42.656,16.088,31.013,81,73.370,3.597,3.964,82,0.148,0.052,0.006,83,0.678,-0.614,9.764
15087.97739,3,1.252,-1.046,9.559,4,-0.081,-0.003,-0.210,5,-42.713,16.256,30.956,81,73.114,3.657,3.977,82,0.234,-0.237,-0.273,83,0.680,-0.624,9.763
15088.01781,3,0.830,-1.154,9.533,4,-0.072,-0.030,-0.217,5,-42.844,16.444,30.656,81,73.130,3.796,4.065,82,0.557,-0.398,-0.201,83,0.695,-0.648,9.761
15088.05823,3,0.600,-1.072,9.639,4,0.009,-0.028,-0.168,5,-42.413,16.313,30.488,81,73.352,3.874,4.124,82,0.125,-0.493,-0.226,83,0.705,-0.661,9.759
15088.09866,3,0.553,-0.953,9.598,4,-0.000,0.020,-0.094,5,-42.356,15.956,30.488,81,73.463,3.879,4.136,82,-0.107,-0.410,-0.120,83,0.707,-0.662,9.759
15088.13908,3,0.622,-0.677,9.770,4,-0.021,0.014,0.010,5,-42.544,15.713,30.413,81,73.541,3.871,4.140,82,-0.155,-0.293,-0.161,83,0.708,-0.660,9.759
15088.17950,3,0.679,-0.507,9.559,4,0.011,-0.007,0.039,5,-42.713,15.244,30.413,81,73.356,3.898,4.120,82,-0.082,-0.012,0.011,83,0.704,-0.665,9.759
