timestamp,accel,accelX,accelY,accelZ,gyro,gyroX,gyroY,gyroZ
972311.92421,3,-0.601,1.927,10.144
972311.92543,3,-0.594,1.932,10.120
972311.92665,3,-0.579,1.922,10.084
972311.92786,3,-0.575,1.915,10.053
972311.92908,3,-0.577,1.918,10.031
972311.93030,3,-0.551,1.927,9.998
972311.93152,3,-0.527,1.930,9.962
972311.93273,3,-0.515,1.920,9.928
972311.93395,3,-0.505,1.910,9.897
972311.93519,3,-0.486,1.910,9.866
972311.93643,3,-0.469,1.910,9.833
972311.93767,3,-0.457,1.908,9.801
972311.93890,3,-0.438,1.908,9.765
972311.94011,3,-0.417,1.906,9.734
972311.94133,3,-0.402,1.901,9.701
972311.94254,3,-0.381,1.891,9.667
972311.94376,3,-0.347,1.872,9.646
972311.94497,3,-0.321,1.855,9.629
972311.94619,3,-0.299,1.858,9.610
972311.94740,3,-0.280,1.858,9.588
972311.94862,3,-0.256,1.853,9.567
972311.94983,3,-0.227,1.853,9.548
972311.95105,3,-0.199,1.841,9.536
972311.95226,3,-0.175,1.841,9.524
972311.95348,3,-0.158,1.846,9.505
972311.95469,3,-0.139,1.836,9.490,5,-11.794,-27.431,12.581
972311.95591,3,-0.122,1.831,9.469
972311.95712,3,-0.108,1.834,9.442
972311.95834,3,-0.074,1.831,9.416
972311.95955,3,-0.048,1.829,9.383
972311.96077,3,-0.026,1.827,9.349
972311.96199,3,0.002,1.827,9.320
972311.96320,3,0.019,1.829,9.282
972311.96442,3,0.033,1.834,9.232,5,-11.231,-26.944,12.113
972311.96563,3,0.045,1.831,9.200
972311.96685,3,0.048,1.824,9.181
972311.96806,3,0.057,1.831,9.148
972311.96928,3,0.069,1.829,9.107
972311.97049,3,0.077,1.815,9.074
972311.97171,3,0.084,1.812,9.050
972311.97292,3,0.093,1.815,9.033,5,-10.706,-27.319,12.113
972311.97414,3,0.091,1.822,9.021
972311.97535,3,0.093,1.831,8.999
972311.97657,3,0.103,1.819,8.990
972311.97778,3,0.105,1.812,8.985
972311.97900,3,0.098,1.824,8.980
972311.98022,3,0.091,1.824,8.983
972311.98143,3,0.093,1.817,8.992
972311.98265,3,0.081,1.817,9.002
972311.98386,3,0.067,1.819,9.011,5,-10.294,-27.131,12.038
972311.98508,3,0.057,1.819,9.023
972311.98629,3,0.048,1.822,9.028
972311.98751,3,0.033,1.827,9.031,4,-0.005,-0.115,-0.171
972311.98872,3,0.014,1.819,9.038,4,-0.012,-0.105,-0.173
972311.98994,3,-0.002,1.812,9.050,4,-0.014,-0.097,-0.178
972311.99115,3,-0.007,1.822,9.059,4,-0.017,-0.092,-0.164
972311.99237,3,-0.017,1.841,9.069
972311.99358,3,-0.048,1.846,9.083,4,-0.019,-0.084,-0.169,5,-10.369,-27.000,11.963
972311.99480,3,-0.074,1.846,9.090,4,-0.022,-0.070,-0.157
972311.99601,3,-0.086,1.839,9.095,4,-0.026,-0.065,-0.159
972311.99723,3,-0.103,1.831,9.105,4,-0.028,-0.057,-0.157
972311.99844,3,-0.124,1.829,9.107,4,-0.032,-0.050,-0.148
972311.99966,3,-0.139,1.824,9.107,4,-0.035,-0.043,-0.152
972312.00088,3,-0.141,1.829,9.107,4,-0.041,-0.038,-0.145
972312.00209,3,-0.148,1.836,9.105,4,-0.041,-0.030,-0.138
972312.00331,3,-0.170,1.834,9.107,4,-0.042,-0.026,-0.139
972312.00452,3,-0.191,1.829,9.100,4,-0.044,-0.018,-0.129,5,-10.294,-26.906,11.963
972312.00574,3,-0.206,1.822,9.081
972312.00695,3,-0.230,1.805,9.071,4,-0.055,-0.004,-0.129
972312.00817,3,-0.251,1.800,9.071,4,-0.058,-0.001,-0.121
972312.00938,3,-0.261,1.810,9.069,4,-0.064,0.006,-0.117
972312.01060,3,-0.278,1.803,9.069,4,-0.066,0.012,-0.116
972312.01181,3,-0.295,1.784,9.071,4,-0.069,0.018,-0.107
972312.01303,3,-0.307,1.764,9.066
972312.01424,3,-0.316,1.750,9.071,4,-0.074,0.029,-0.104,5,-10.313,-26.925,11.869
972312.01546,3,-0.328,1.750,9.081,4,-0.080,0.033,-0.095
972312.01667,3,-0.350,1.752,9.090,4,-0.082,0.037,-0.098
972312.01789,3,-0.366,1.738,9.107,4,-0.088,0.042,-0.090
972312.01911,3,-0.371,1.717,9.133,4,-0.093,0.046,-0.086
972312.02032,3,-0.378,1.702,9.169,4,-0.098,0.050,-0.088
972312.02154,3,-0.393,1.693,9.205,4,-0.098,0.050,-0.080
972312.02275,3,-0.412,1.688,9.236
972312.02397,3,-0.424,1.683,9.265,4,-0.098,0.051,-0.079,5,-10.313,-27.131,11.850
972312.02518,3,-0.431,1.678,9.294,4,-0.104,0.054,-0.073
972312.02640,3,-0.438,1.673,9.325,4,-0.107,0.057,-0.073
972312.02761,3,-0.448,1.657,9.354,4,-0.109,0.058,-0.074
972312.02883,3,-0.462,1.635,9.390,4,-0.108,0.056,-0.068
972312.03004,3,-0.469,1.621,9.423,4,-0.111,0.057,-0.072
972312.03126,3,-0.469,1.611,9.454,4,-0.109,0.059,-0.074
972312.03247,3,-0.476,1.606,9.481,4,-0.109,0.057,-0.069
972312.03369,3,-0.484,1.604,9.497
972312.03490,3,-0.491,1.590,9.512,4,-0.109,0.058,-0.071,5,-10.181,-27.244,11.869
972312.03612,3,-0.505,1.575,9.526,4,-0.107,0.057,-0.069
972312.03734,3,-0.527,1.571,9.550,4,-0.110,0.061,-0.072
972312.03855,3,-0.541,1.566,9.574,4,-0.107,0.061,-0.071
972312.03977,3,-0.553,1.561,9.598
972312.04098,3,-0.570,1.561,9.624,4,-0.104,0.063,-0.074
972312.04220,3,-0.575,1.556,9.641
972312.04341,3,-0.587,1.535,9.663,4,-0.100,0.065,-0.072
972312.04463,3,-0.610,1.520,9.694,4,-0.098,0.065,-0.074,5,-9.938,-27.188,11.719
972312.04584,3,-0.630,1.518,9.710,4,-0.095,0.066,-0.069
972312.04706,3,-0.639,1.513,9.725
972312.04827,3,-0.644,1.504,9.749,4,-0.094,0.068,-0.071
972312.04949,3,-0.646,1.484,9.768,4,-0.088,0.065,-0.069
972312.05070,3,-0.656,1.461,9.787,4,-0.088,0.065,-0.071
972312.05192,3,-0.666,1.439,9.811,4,-0.084,0.067,-0.070
972312.05313,3,-0.673,1.425,9.828
972312.05435,3,-0.675,1.405,9.842,4,-0.076,0.069,-0.071,5,-9.938,-27.056,11.681
972312.05556,3,-0.663,1.384,9.852,4,-0.071,0.067,-0.070
972312.05678,3,-0.654,1.376,9.864
972312.05800,3,-0.654,1.369,9.881,4,-0.069,0.067,-0.072
972312.05921,3,-0.642,1.357,9.900,4,-0.060,0.064,-0.070
972312.06043,3,-0.630,1.348,9.919,4,-0.057,0.065,-0.072
972312.06164,3,-0.620,1.331,9.931
972312.06286,3,-0.622,1.329,9.940,4,-0.052,0.064,-0.074
972312.06407,3,-0.632,1.321,9.952,4,-0.042,0.059,-0.072,5,-10.088,-27.169,11.663
972312.06529,3,-0.634,1.298,9.962
972312.06650,3,-0.639,1.276,9.967,4,-0.038,0.056,-0.072
972312.06772,3,-0.637,1.264,9.971,4,-0.028,0.053,-0.074
972312.06893,3,-0.634,1.262,9.974
972312.07015,3,-0.634,1.264,9.986,4,-0.021,0.051,-0.074
972312.07136,3,-0.637,1.262,10.000,4,-0.014,0.048,-0.076
972312.07258,3,-0.632,1.257,10.005
972312.07379,3,-0.642,1.271,10.007,4,-0.011,0.045,-0.074,5,-9.806,-27.131,11.513
972312.07501,3,-0.661,1.281,10.017,4,-0.000,0.042,-0.073
972312.07623,3,-0.663,1.278,10.019,4,0.003,0.038,-0.074
972312.07744,3,-0.658,1.276,10.019
972312.07866,3,-0.656,1.254,10.022,4,0.011,0.034,-0.073
972312.07987,3,-0.654,1.242,10.027,4,0.014,0.031,-0.071
972312.08109,3,-0.656,1.250,10.038,4,0.022,0.032,-0.072
972312.08230,3,-0.661,1.259,10.048,4,0.026,0.031,-0.071
972312.08352,3,-0.673,1.262,10.046
972312.08473,3,-0.689,1.254,10.038,4,0.029,0.029,-0.072,5,-9.825,-27.056,11.438
972312.08595,3,-0.699,1.252,10.024,4,0.038,0.027,-0.071
972312.08716,3,-0.704,1.252,10.015
972312.08838,3,-0.713,1.250,10.015,4,0.047,0.025,-0.069
972312.08959,3,-0.711,1.240,10.010
972312.09081,3,-0.706,1.233,10.003,4,0.049,0.028,-0.068
972312.09202,3,-0.711,1.238,10.000,4,0.052,0.026,-0.068
972312.09324,3,-0.725,1.242,9.998,4,0.061,0.023,-0.069
972312.09446,3,-0.737,1.242,9.993,4,0.064,0.025,-0.067,5,-9.563,-27.056,11.269
972312.09567,3,-0.737,1.242,9.995
972312.09689,3,-0.735,1.250,9.998,4,0.070,0.023,-0.065
972312.09810,3,-0.742,1.247,10.000,4,0.074,0.028,-0.064
972312.09932,3,-0.752,1.240,9.998,4,0.078,0.024,-0.062
972312.10053,3,-0.764,1.247,10.007
972312.10175,3,-0.759,1.254,10.027,4,0.084,0.025,-0.063
972312.10296,3,-0.749,1.254,10.034,4,0.088,0.022,-0.060
972312.10418,3,-0.759,1.250,10.029,4,0.093,0.018,-0.057,5,-9.319,-26.850,11.025
972312.10539,3,-0.768,1.250,10.029
972312.10661,3,-0.761,1.252,10.027,4,0.098,0.018,-0.054
972312.10782,3,-0.747,1.254,10.019
972312.10904,3,-0.759,1.262,10.000,4,0.110,0.010,-0.050
972312.11025,3,-0.771,1.266,9.981
972312.11147,3,-0.764,1.269,9.971,4,0.111,0.012,-0.047
972312.11268,3,-0.759,1.262,9.957,4,0.120,0.008,-0.044
972312.11390,3,-0.754,1.266,9.938,4,0.124,0.007,-0.043,5,-9.338,-26.738,10.856
972312.11512,3,-0.752,1.288,9.921
972312.11633,3,-0.752,1.300,9.902,4,0.127,0.007,-0.038
972312.11755,3,-0.752,1.300,9.878,4,0.129,0.006,-0.035
972312.11876,3,-0.747,1.302,9.861,4,0.130,0.007,-0.032
972312.11998,3,-0.744,1.305,9.854,4,0.137,0.004,-0.030
972312.12119,3,-0.752,1.305,9.849,4,0.140,0.001,-0.028
972312.12241,3,-0.749,1.312,9.837,4,0.149,0.000,-0.022
972312.12362,3,-0.742,1.319,9.821,5,-9.544,-26.888,10.969
972312.12484,3,-0.735,1.321,9.818,4,0.155,-0.004,-0.016
972312.12605,3,-0.721,1.324,9.811
972312.12727,3,-0.713,1.329,9.806,4,0.165,-0.008,-0.011
972312.12848,3,-0.704,1.321,9.792
972312.12970,3,-0.692,1.321,9.770,4,0.170,-0.008,-0.007
972312.13091,3,-0.685,1.329,9.768,4,0.174,-0.015,0.002
972312.13213,3,-0.675,1.331,9.758,4,0.175,-0.015,0.003
972312.13335,3,-0.668,1.341,9.744,4,0.181,-0.015,0.001
972312.13456,3,-0.663,1.345,9.737,4,0.181,-0.021,0.008,5,-9.506,-26.981,10.875
972312.13578,3,-0.661,1.341,9.730
972312.13699,3,-0.654,1.343,9.722,4,0.187,-0.026,0.014
972312.13821,3,-0.649,1.343,9.725,4,0.195,-0.030,0.017
972312.13942,3,-0.642,1.343,9.720,4,0.195,-0.032,0.022
972312.14064,3,-0.632,1.345,9.718,4,0.196,-0.035,0.022
972312.14185,3,-0.618,1.341,9.720,4,0.198,-0.037,0.027
972312.14307,3,-0.603,1.333,9.720,4,0.196,-0.041,0.027
972312.14428,3,-0.582,1.329,9.713,4,0.204,-0.046,0.033,5,-9.488,-27.056,10.931
972312.14550,3,-0.565,1.317,9.710,4,0.202,-0.048,0.035
972312.14671,3,-0.553,1.305,9.708
972312.14793,3,-0.548,1.300,9.694,4,0.204,-0.051,0.039
972312.14914,3,-0.551,1.305,9.689,4,0.206,-0.056,0.044
972312.15036,3,-0.548,1.305,9.691,4,0.209,-0.057,0.042
972312.15158,3,-0.546,1.298,9.689
972312.15279,3,-0.536,1.290,9.684,4,0.210,-0.060,0.046
972312.15401,3,-0.524,1.288,9.689,4,0.214,-0.063,0.047,5,-9.694,-27.169,10.931
972312.15522,3,-0.517,1.286,9.698
972312.15644,3,-0.503,1.274,9.701,4,0.213,-0.065,0.050
972312.15765,3,-0.481,1.269,9.698,4,0.215,-0.070,0.052
972312.15887,3,-0.474,1.276,9.701,4,0.216,-0.070,0.053
972312.16008,3,-0.474,1.269,9.701
972312.16130,3,-0.465,1.264,9.706,4,0.220,-0.074,0.054
972312.16251,3,-0.448,1.266,9.720,4,0.218,-0.074,0.057
972312.16373,3,-0.445,1.271,9.725,4,0.222,-0.077,0.059,5,-9.638,-27.375,10.781
972312.16494,3,-0.448,1.276,9.722,4,0.223,-0.074,0.056
972312.16616,3,-0.433,1.274,9.708,4,0.227,-0.081,0.060
972312.16737,3,-0.421,1.271,9.698,4,0.228,-0.078,0.060
972312.16859,3,-0.417,1.278,9.694,4,0.231,-0.080,0.060
972312.16980,3,-0.412,1.281,9.686
972312.17102,3,-0.405,1.283,9.679,4,0.234,-0.079,0.063
972312.17224,3,-0.395,1.283,9.670,4,0.233,-0.078,0.061
972312.17345,3,-0.378,1.278,9.660,4,0.239,-0.079,0.064
972312.17467,3,-0.364,1.293,9.641,5,-9.694,-27.300,10.931
972312.17588,3,-0.354,1.302,9.629,4,0.242,-0.080,0.065
972312.17710,3,-0.335,1.293,9.627,4,0.247,-0.083,0.068
972312.17831,3,-0.314,1.283,9.622,4,0.249,-0.085,0.068
972312.17953,3,-0.295,1.276,9.605
972312.18074,3,-0.266,1.274,9.588,4,0.253,-0.085,0.069
972312.18196,3,-0.232,1.266,9.574,4,0.257,-0.088,0.069
972312.18317,3,-0.211,1.262,9.555,4,0.261,-0.089,0.071
972312.18439,3,-0.191,1.254,9.526,4,0.262,-0.089,0.072,5,-9.938,-27.075,11.119
972312.18560,3,-0.177,1.247,9.493,4,0.265,-0.094,0.071
972312.18682,3,-0.156,1.238,9.469,4,0.265,-0.090,0.071
972312.18803,3,-0.132,1.233,9.452,4,0.266,-0.092,0.069
972312.18925,3,-0.110,1.233,9.435
972312.19047,3,-0.084,1.228,9.414,4,0.270,-0.095,0.067
972312.19168,3,-0.067,1.226,9.399,4,0.271,-0.095,0.069
972312.19290,3,-0.057,1.207,9.387,4,0.272,-0.095,0.066
972312.19411,3,-0.045,1.183,9.371,5,-9.656,-26.850,11.175
972312.19533,3,-0.031,1.164,9.359,4,0.271,-0.098,0.064
972312.19654,3,-0.005,1.154,9.344,4,0.270,-0.098,0.060
972312.19776,3,0.022,1.142,9.342,4,0.267,-0.098,0.058
972312.19897,3,0.038,1.130,9.347,4,0.263,-0.099,0.057
972312.20019,3,0.041,1.120,9.359,4,0.264,-0.101,0.057
972312.20140,3,0.048,1.097,9.361,4,0.262,-0.103,0.052
972312.20262,3,0.065,1.075,9.363,4,0.255,-0.104,0.050
972312.20383,3,0.098,1.051,9.380,4,0.254,-0.106,0.049,5,-9.656,-26.719,11.175
972312.20505,3,0.127,1.025,9.395,4,0.250,-0.109,0.044
972312.20626,3,0.136,1.015,9.409,4,0.245,-0.110,0.042
972312.20748,3,0.148,1.006,9.421,4,0.238,-0.113,0.038
972312.20870,3,0.172,0.986,9.447
972312.20991,3,0.187,0.967,9.476,4,0.225,-0.119,0.035
972312.21113,3,0.196,0.948,9.509,4,0.220,-0.120,0.028
972312.21234,3,0.211,0.934,9.536,4,0.210,-0.126,0.028
972312.21356,3,0.218,0.922,9.557,4,0.205,-0.126,0.025,5,-9.675,-26.419,11.494
972312.21477,3,0.220,0.903,9.588,4,0.196,-0.128,0.023
972312.21599,3,0.218,0.874,9.624,4,0.191,-0.133,0.017
972312.21720,3,0.218,0.867,9.660,4,0.181,-0.136,0.014
972312.21842,3,0.223,0.869,9.696,4,0.173,-0.137,0.010
972312.21963,3,0.225,0.855,9.725
972312.22085,3,0.230,0.831,9.756,4,0.155,-0.138,0.005
972312.22206,3,0.232,0.800,9.792,4,0.147,-0.141,-0.003
972312.22328,3,0.230,0.780,9.828,4,0.133,-0.140,-0.005
972312.22449,3,0.230,0.773,9.864,4,0.122,-0.139,-0.010,5,-9.769,-26.306,11.606
972312.22571,3,0.239,0.752,9.893,4,0.113,-0.141,-0.014
972312.22692,3,0.251,0.728,9.931,4,0.102,-0.139,-0.017
972312.22814,3,0.261,0.709,9.974,4,0.091,-0.136,-0.021
972312.22936,3,0.268,0.692,10.010
972312.23057,3,0.263,0.680,10.048,4,0.069,-0.134,-0.028
972312.23179,3,0.258,0.673,10.084,4,0.056,-0.128,-0.033
972312.23300,3,0.275,0.663,10.120,4,0.044,-0.123,-0.040
972312.23422,3,0.292,0.654,10.153,4,0.032,-0.120,-0.041,5,-9.675,-26.156,11.906
972312.23543,3,0.309,0.644,10.187,4,0.020,-0.114,-0.047
972312.23665,3,0.311,0.630,10.220
972312.23786,3,0.299,0.620,10.256,4,-0.004,-0.106,-0.058
972312.23908,3,0.302,0.610,10.295,4,-0.013,-0.101,-0.065
972312.24029,3,0.302,0.596,10.335,4,-0.030,-0.093,-0.069
972312.24151,3,0.287,0.591,10.373,4,-0.043,-0.087,-0.072
972312.24272,3,0.278,0.582,10.410,4,-0.056,-0.078,-0.077
972312.24394,3,0.268,0.572,10.458,4,-0.069,-0.072,-0.080,5,-9.619,-26.063,12.244
972312.24515,3,0.273,0.567,10.505,4,-0.079,-0.068,-0.086
972312.24637,3,0.278,0.563,10.548,4,-0.096,-0.059,-0.089
972312.24759,3,0.270,0.558,10.589,4,-0.106,-0.051,-0.092
972312.24880,3,0.258,0.551,10.627
972312.25002,3,0.249,0.541,10.670,4,-0.130,-0.037,-0.099
972312.25123,3,0.246,0.532,10.711,4,-0.143,-0.031,-0.104
972312.25245,3,0.246,0.527,10.754,4,-0.157,-0.020,-0.108
972312.25366,3,0.230,0.515,10.800,4,-0.167,-0.013,-0.110,5,-9.919,-26.025,12.394
972312.25488,3,0.215,0.500,10.840,4,-0.179,-0.005,-0.114
972312.25609,3,0.208,0.493,10.874,4,-0.189,0.004,-0.117
972312.25731,3,0.201,0.488,10.903
972312.25852,3,0.191,0.486,10.922,4,-0.200,0.014,-0.117
972312.25974,3,0.187,0.469,10.946,4,-0.212,0.024,-0.121
972312.26095,3,0.187,0.450,10.975,4,-0.222,0.032,-0.123
972312.26217,3,0.187,0.445,10.999,4,-0.243,0.053,-0.131
972312.26338,3,0.189,0.441,11.011
972312.26460,3,0.191,0.431,11.020,4,-0.250,0.062,-0.132,5,-9.825,-26.194,12.581
972312.26582,3,0.189,0.421,11.051,4,-0.267,0.082,-0.137
972312.26703,3,0.184,0.414,11.087,4,-0.275,0.095,-0.138
972312.26825,3,0.189,0.400,11.109,4,-0.283,0.108,-0.139
972312.26946,3,0.191,0.386,11.125,4,-0.291,0.120,-0.142
972312.27068,3,0.172,0.374,11.152,4,-0.297,0.126,-0.142
972312.27189,3,0.158,0.371,11.173,4,-0.305,0.137,-0.145
972312.27311,3,0.156,0.376,11.185
972312.27432,3,0.151,0.374,11.197,4,-0.309,0.156,-0.146,5,-10.013,-26.250,12.788
972312.27554,3,0.148,0.366,11.212,4,-0.311,0.166,-0.147
972312.27675,3,0.144,0.362,11.231,4,-0.316,0.177,-0.149
972312.27797,3,0.124,0.352,11.245,4,-0.317,0.185,-0.147
972312.27918,3,0.112,0.350,11.252,4,-0.316,0.192,-0.149
972312.28040,3,0.120,0.352,11.262,4,-0.313,0.199,-0.147
972312.28161,3,0.124,0.352,11.281,4,-0.311,0.205,-0.145
972312.28283,3,0.124,0.350,11.302,4,-0.309,0.212,-0.146
972312.28404,3,0.115,0.347,11.302,4,-0.303,0.218,-0.145,5,-9.844,-26.381,12.975
972312.28526,3,0.105,0.364,11.288,4,-0.298,0.224,-0.145
972312.28648,3,0.098,0.364,11.279,4,-0.294,0.229,-0.143
972312.28769,3,0.081,0.357,11.276,4,-0.291,0.235,-0.141
972312.28891,3,0.069,0.362,11.259,4,-0.283,0.241,-0.140
972312.29012,3,0.074,0.364,11.224,4,-0.276,0.244,-0.138
972312.29134,3,0.081,0.369,11.192,4,-0.268,0.250,-0.135
972312.29255,3,0.074,0.374,11.168,4,-0.259,0.252,-0.138
972312.29377,3,0.055,0.381,11.149,4,-0.250,0.256,-0.135,5,-10.125,-26.569,12.975
972312.29498,3,0.038,0.378,11.121,4,-0.242,0.260,-0.132
972312.29620,3,0.036,0.378,11.087,4,-0.229,0.260,-0.130
972312.29741,3,0.026,0.388,11.049,4,-0.219,0.263,-0.127
972312.29863,3,0.019,0.395,11.013,4,-0.212,0.262,-0.123
972312.29984,3,0.024,0.398,10.977,4,-0.198,0.262,-0.124
972312.30106,3,0.017,0.405,10.946,4,-0.184,0.262,-0.124
972312.30227,3,0.005,0.426,10.912,4,-0.174,0.261,-0.120
972312.30349,3,-0.012,0.433,10.862
972312.30471,3,-0.031,0.443,10.812,4,-0.148,0.258,-0.117,5,-10.106,-26.381,13.069
972312.30592,3,-0.041,0.460,10.766,4,-0.136,0.254,-0.117
972312.30714,3,-0.050,0.484,10.728
972312.30835,3,-0.062,0.512,10.682,4,-0.108,0.249,-0.110
972312.30957,3,-0.072,0.529,10.632,4,-0.098,0.242,-0.105
972312.31078,3,-0.081,0.541,10.580,4,-0.081,0.238,-0.107
972312.31200,3,-0.086,0.546,10.522,4,-0.068,0.234,-0.104
972312.31321,3,-0.089,0.546,10.465,4,-0.055,0.230,-0.104
972312.31443,3,-0.091,0.558,10.412,4,-0.039,0.224,-0.104,5,-10.219,-26.325,12.919
972312.31564,3,-0.086,0.575,10.364,4,-0.025,0.216,-0.102
972312.31686,3,-0.084,0.587,10.326
972312.31807,3,-0.077,0.603,10.283,4,0.004,0.202,-0.100
972312.31929,3,-0.067,0.622,10.220,4,0.019,0.193,-0.098
972312.32050,3,-0.065,0.639,10.156,4,0.034,0.187,-0.100
972312.32172,3,-0.062,0.654,10.103,4,0.049,0.177,-0.098
972312.32294,3,-0.050,0.656,10.058
972312.32415,3,-0.038,0.663,10.007,4,0.073,0.162,-0.100,5,-10.294,-26.400,12.919
972312.32537,3,-0.026,0.677,9.945,4,0.091,0.152,-0.099
972312.32658,3,-0.019,0.701,9.883,4,0.103,0.142,-0.101
972312.32780,3,-0.014,0.725,9.833,4,0.120,0.133,-0.104
972312.32901,3,0.000,0.740,9.768,4,0.132,0.123,-0.104
972312.33023,3,0.017,0.744,9.701,4,0.146,0.112,-0.105
972312.33144,3,0.026,0.752,9.639,4,0.165,0.103,-0.103
972312.33266,3,0.041,0.766,9.572,4,0.176,0.093,-0.104
972312.33387,3,0.053,0.780,9.509,4,0.188,0.084,-0.108,5,-10.144,-26.269,12.863
972312.33509,3,0.062,0.797,9.445,4,0.205,0.073,-0.108
972312.33630,3,0.079,0.809,9.383,4,0.217,0.065,-0.111
972312.33752,3,0.105,0.814,9.316,4,0.229,0.056,-0.111
972312.33873,3,0.120,0.816,9.246,4,0.244,0.048,-0.113
972312.33995,3,0.132,0.826,9.184,4,0.255,0.038,-0.116
972312.34116,3,0.151,0.831,9.124
972312.34238,3,0.170,0.819,9.059,4,0.283,0.023,-0.118
972312.34360,3,0.179,0.807,8.995,4,0.294,0.015,-0.122,5,-10.331,-26.231,12.619
972312.34481,3,0.201,0.807,8.932,4,0.303,0.008,-0.124
972312.34603,3,0.223,0.809,8.875,4,0.314,0.001,-0.124
972312.34724,3,0.246,0.816,8.825,4,0.324,-0.005,-0.128
972312.34846,3,0.266,0.838,8.779,4,0.336,-0.017,-0.131
972312.34967,3,0.270,0.852,8.734
972312.35089,3,0.297,0.845,8.686,4,0.353,-0.029,-0.138
972312.35210,3,0.319,0.840,8.638,4,0.364,-0.038,-0.139
972312.35332,3,0.326,0.843,8.600,4,0.371,-0.049,-0.143
972312.35453,3,0.345,0.845,8.568,4,0.380,-0.058,-0.147,5,-10.181,-26.306,12.356
972312.35575,3,0.369,0.845,8.535,4,0.386,-0.062,-0.149
972312.35696,3,0.378,0.843,8.504,4,0.396,-0.072,-0.152
972312.35818,3,0.388,0.835,8.477
972312.35939,3,0.395,0.843,8.454,4,0.407,-0.089,-0.163
972312.36061,3,0.402,0.857,8.434,4,0.412,-0.099,-0.167
972312.36183,3,0.421,0.857,8.418,4,0.415,-0.109,-0.168
972312.36304,3,0.448,0.862,8.406,4,0.419,-0.118,-0.172
972312.36426,3,0.455,0.879,8.396,4,0.422,-0.128,-0.178,5,-10.369,-26.063,12.338
972312.36547,3,0.453,0.884,8.384,4,0.427,-0.135,-0.182
972312.36669,3,0.457,0.891,8.384,4,0.427,-0.145,-0.184
972312.36790,3,0.467,0.898,8.389,4,0.428,-0.156,-0.189
972312.36912,3,0.488,0.898,8.387,4,0.433,-0.161,-0.193
972312.37033,3,0.500,0.900,8.396,4,0.434,-0.170,-0.197
972312.37155,3,0.498,0.900,8.413,4,0.431,-0.178,-0.200
972312.37276,3,0.503,0.905,8.430,4,0.432,-0.187,-0.205
972312.37398,3,0.512,0.910,8.444,4,0.430,-0.194,-0.207,5,-10.163,-26.006,12.281
972312.37519,3,0.515,0.910,8.458
972312.37641,3,0.510,0.910,8.473,4,0.426,-0.200,-0.214
972312.37762,3,0.510,0.907,8.494,4,0.422,-0.215,-0.220
972312.37884,3,0.517,0.907,8.525
972312.38006,3,0.524,0.912,8.552,4,0.418,-0.222,-0.225
972312.38127,3,0.534,0.919,8.578,4,0.407,-0.234,-0.229
972312.38249,3,0.543,0.924,8.602,4,0.399,-0.238,-0.237
972312.38370,3,0.551,0.927,8.628,5,-10.050,-26.194,12.056
972312.38492,3,0.551,0.924,8.657,4,0.382,-0.247,-0.242
972312.38613,3,0.565,0.917,8.690
972312.38735,3,0.579,0.905,8.715,4,0.366,-0.252,-0.250
972312.38856,3,0.577,0.896,8.736
972312.38978,3,0.570,0.888,8.760,4,0.344,-0.258,-0.260
972312.39099,3,0.575,0.884,8.798,4,0.326,-0.255,-0.262
972312.39221,3,0.584,0.876,8.832,4,0.314,-0.258,-0.271
972312.39342,3,0.589,0.872,8.846,4,0.300,-0.259,-0.271
972312.39464,3,0.594,0.876,8.865,4,0.283,-0.257,-0.275,5,-9.919,-26.288,12.188
972312.39585,3,0.596,0.876,8.899,4,0.267,-0.256,-0.283
972312.39707,3,0.591,0.876,8.940,4,0.251,-0.255,-0.282
972312.39829,3,0.587,0.876,8.978,4,0.234,-0.253,-0.287
972312.39950,3,0.572,0.881,9.007,4,0.215,-0.250,-0.291
972312.40072,3,0.575,0.888,9.031
972312.40193,3,0.591,0.886,9.064,4,0.177,-0.244,-0.298
972312.40315,3,0.587,0.884,9.100
972312.40436,3,0.579,0.874,9.131,4,0.136,-0.234,-0.302,5,-9.900,-26.063,12.094
972312.40558,3,0.572,0.860,9.169,4,0.118,-0.230,-0.306
972312.40679,3,0.570,0.860,9.215,4,0.094,-0.223,-0.312
972312.40801,3,0.579,0.867,9.246,4,0.077,-0.218,-0.313
972312.40922,3,0.579,0.860,9.265,4,0.053,-0.209,-0.318
972312.41044,3,0.572,0.852,9.292,4,0.032,-0.200,-0.324
972312.41165,3,0.584,0.848,9.318,4,0.010,-0.191,-0.325
972312.41287,3,0.584,0.845,9.344,4,-0.013,-0.181,-0.333
972312.41408,3,0.565,0.835,9.371,5,-9.881,-26.306,12.319
972312.41530,3,0.570,0.826,9.399,4,-0.032,-0.170,-0.333
972312.41651,3,0.563,0.819,9.428,4,-0.075,-0.147,-0.341
972312.41773,3,0.553,0.814,9.459,4,-0.099,-0.132,-0.342
972312.41895,3,0.548,0.816,9.485,4,-0.120,-0.124,-0.349
972312.42016,3,0.546,0.807,9.507
972312.42138,3,0.551,0.790,9.531,4,-0.142,-0.108,-0.353
972312.42259,3,0.555,0.785,9.557,4,-0.186,-0.076,-0.360
972312.42381,3,0.548,0.790,9.586,4,-0.209,-0.059,-0.362,5,-9.656,-26.250,12.694
972312.42502,3,0.529,0.783,9.612,4,-0.228,-0.041,-0.368
972312.42624,3,0.512,0.773,9.643,4,-0.250,-0.024,-0.371
972312.42745,3,0.500,0.771,9.677,4,-0.272,-0.008,-0.371
972312.42867,3,0.503,0.766,9.706,4,-0.287,0.010,-0.375
972312.42988,3,0.496,0.764,9.737,4,-0.309,0.028,-0.377
972312.43110,3,0.481,0.764,9.761,4,-0.328,0.047,-0.380
972312.43231,3,0.481,0.752,9.782,4,-0.345,0.067,-0.383
972312.43353,3,0.472,0.740,9.821,4,-0.365,0.084,-0.384,5,-9.769,-26.644,12.919
972312.43474,3,0.453,0.733,9.876,4,-0.381,0.102,-0.385
972312.43596,3,0.438,0.721,9.931,4,-0.397,0.119,-0.384
972312.43718,3,0.424,0.716,9.976,4,-0.416,0.137,-0.386
972312.43839,3,0.414,0.704,10.027,4,-0.431,0.153,-0.388
972312.43961,3,0.407,0.685,10.077,4,-0.446,0.170,-0.387
972312.44082,3,0.388,0.675,10.108,4,-0.459,0.187,-0.389
972312.44204,3,0.378,0.668,10.125,4,-0.468,0.200,-0.386
972312.44325,3,0.378,0.658,10.151,4,-0.485,0.216,-0.387
972312.44447,3,0.354,0.651,10.184,5,-9.506,-26.794,12.788
972312.44568,3,0.331,0.644,10.213,4,-0.501,0.244,-0.389
972312.44690,3,0.321,0.642,10.237,4,-0.511,0.254,-0.387
972312.44811,3,0.307,0.644,10.266
972312.44933,3,0.287,0.644,10.285,4,-0.525,0.282,-0.383
972312.45054,3,0.268,0.646,10.299,4,-0.532,0.292,-0.381
972312.45176,3,0.244,0.644,10.314,4,-0.534,0.302,-0.377
972312.45297,3,0.225,0.649,10.330
972312.45419,3,0.203,0.654,10.354,4,-0.544,0.323,-0.375,5,-9.450,-26.888,12.581
972312.45541,3,0.189,0.658,10.378,4,-0.545,0.331,-0.371
972312.45662,3,0.184,0.658,10.398,4,-0.545,0.338,-0.369
972312.45784,3,0.172,0.663,10.414,4,-0.545,0.344,-0.367
972312.45905,3,0.153,0.663,10.426,4,-0.541,0.350,-0.360
972312.46027,3,0.132,0.668,10.441
972312.46148,3,0.115,0.677,10.462,4,-0.539,0.353,-0.360
972312.46270,3,0.105,0.685,10.477,4,-0.533,0.352,-0.355
972312.46391,3,0.091,0.692,10.477,4,-0.526,0.356,-0.349,5,-9.356,-26.700,12.581
972312.46513,3,0.077,0.701,10.477,4,-0.517,0.356,-0.341
972312.46634,3,0.069,0.709,10.484,4,-0.509,0.354,-0.337
972312.46756,3,0.057,0.723,10.481,4,-0.502,0.354,-0.335
972312.46877,3,0.050,0.742,10.467,4,-0.492,0.349,-0.327
972312.46999,3,0.050,0.766,10.448,4,-0.482,0.347,-0.324
972312.47120,3,0.041,0.785,10.431
972312.47242,3,0.022,0.790,10.417,4,-0.460,0.336,-0.311
972312.47363,3,0.012,0.795,10.412,4,-0.450,0.329,-0.308,5,-9.188,-26.756,12.394
972312.47485,3,0.012,0.816,10.402
972312.47607,3,0.005,0.840,10.393,4,-0.438,0.323,-0.302
972312.47728,3,0.005,0.855,10.381,4,-0.423,0.315,-0.294
972312.47850,3,0.000,0.872,10.366,4,-0.398,0.300,-0.283
972312.47971,3,-0.002,0.886,10.354
972312.48093,3,0.002,0.905,10.338,4,-0.369,0.281,-0.275
972312.48214,3,-0.012,0.927,10.316
972312.48336,3,-0.038,0.931,10.295,4,-0.338,0.261,-0.261
972312.48457,3,-0.036,0.931,10.275,4,-0.320,0.245,-0.255,5,-9.169,-26.963,12.413
972312.48579,3,-0.033,0.931,10.256
972312.48700,3,-0.041,0.948,10.242,4,-0.291,0.228,-0.241
972312.48822,3,-0.050,0.970,10.218,4,-0.272,0.212,-0.235
972312.48943,3,-0.055,0.984,10.199
972312.49065,3,-0.038,0.994,10.177,4,-0.255,0.198,-0.229
972312.49186,3,-0.031,0.991,10.151,4,-0.217,0.172,-0.215
972312.49308,3,-0.033,0.998,10.125
972312.49430,3,-0.033,1.015,10.098,4,-0.184,0.147,-0.202,5,-8.906,-26.850,12.225
972312.49551,3,-0.043,1.018,10.070,4,-0.168,0.133,-0.195
972312.49673,3,-0.048,1.022,10.036,4,-0.147,0.120,-0.190
972312.49794,3,-0.048,1.034,9.995,4,-0.129,0.106,-0.182
972312.49916,3,-0.038,1.046,9.955,4,-0.112,0.092,-0.175
972312.50037,3,-0.045,1.051,9.924,4,-0.091,0.080,-0.168
972312.50159,3,-0.077,1.049,9.888,4,-0.076,0.069,-0.163
972312.50280,3,-0.093,1.049,9.857
972312.50402,3,-0.086,1.058,9.830,4,-0.037,0.041,-0.144,5,-8.756,-26.963,11.906
972312.50523,3,-0.086,1.075,9.792,4,-0.022,0.029,-0.140
972312.50645,3,-0.096,1.080,9.758,4,-0.006,0.020,-0.132
972312.50766,3,-0.098,1.073,9.732,4,0.015,0.004,-0.124
972312.50888,3,-0.089,1.065,9.706,4,0.033,-0.007,-0.118
972312.51009,3,-0.079,1.073,9.672,4,0.049,-0.016,-0.112
972312.51131,3,-0.084,1.089,9.641
972312.51253,3,-0.089,1.094,9.605,4,0.081,-0.038,-0.096
972312.51374,3,-0.077,1.104,9.557,4,0.099,-0.048,-0.087
972312.51496,3,-0.062,1.116,9.512,5,-8.794,-26.663,11.831
972312.51617,3,-0.057,1.106,9.469,4,0.114,-0.057,-0.082
972312.51739,3,-0.065,1.097,9.428,4,0.129,-0.064,-0.077
972312.51860,3,-0.060,1.101,9.399,4,0.160,-0.081,-0.061
972312.51982,3,-0.036,1.097,9.368,4,0.173,-0.085,-0.056
972312.52103,3,-0.024,1.092,9.320,4,0.186,-0.092,-0.048
972312.52225,3,-0.010,1.099,9.275,4,0.199,-0.099,-0.043
972312.52346,3,0.002,1.097,9.239,4,0.214,-0.105,-0.038,5,-8.719,-26.700,11.719
972312.52468,3,0.010,1.097,9.200,4,0.226,-0.108,-0.030
972312.52589,3,0.029,1.111,9.165,4,0.236,-0.111,-0.029
972312.52711,3,0.050,1.118,9.131,4,0.244,-0.116,-0.025
972312.52832,3,0.074,1.118,9.088,4,0.258,-0.118,-0.019
972312.52954,3,0.103,1.113,9.054,4,0.268,-0.123,-0.016
972312.53075,3,0.124,1.108,9.033,4,0.278,-0.128,-0.010
972312.53197,3,0.134,1.113,9.004,4,0.287,-0.126,-0.010
972312.53319,3,0.146,1.120,8.973
972312.53440,3,0.158,1.130,8.949,4,0.298,-0.133,-0.003,5,-8.625,-26.700,11.869
972312.53562,3,0.160,1.130,8.937,4,0.309,-0.136,-0.002
972312.53683,3,0.165,1.137,8.913,4,0.314,-0.137,0.003
972312.53805,3,0.175,1.142,8.894
972312.53926,3,0.194,1.137,8.880,4,0.326,-0.145,0.006
972312.54048,3,0.213,1.137,8.858
972312.54169,3,0.223,1.147,8.837,4,0.336,-0.145,0.011
972312.54291,3,0.220,1.164,8.813,4,0.339,-0.149,0.010
972312.54412,3,0.211,1.178,8.791,4,0.346,-0.152,0.014,5,-8.325,-26.869,11.869
972312.54534,3,0.208,1.180,8.770,4,0.349,-0.154,0.014
972312.54655,3,0.218,1.183,8.755,4,0.351,-0.156,0.013
972312.54777,3,0.234,1.185,8.741
972312.54898,3,0.251,1.178,8.715,4,0.356,-0.161,0.019
972312.55020,3,0.256,1.175,8.690,4,0.355,-0.161,0.017
972312.55142,3,0.256,1.175,8.671
972312.55263,3,0.268,1.175,8.643,4,0.353,-0.163,0.016
972312.55385,3,0.283,1.190,8.614,5,-8.606,-26.869,11.981
972312.55506,3,0.295,1.195,8.585,4,0.354,-0.168,0.018
972312.55628,3,0.295,1.199,8.561,4,0.354,-0.169,0.016
972312.55749,3,0.297,1.211,8.542,4,0.350,-0.170,0.013
972312.55871,3,0.314,1.216,8.518,4,0.350,-0.170,0.014
972312.55992,3,0.335,1.211,8.499,4,0.347,-0.174,0.013
972312.56114,3,0.342,1.209,8.485,4,0.339,-0.175,0.009
972312.56235,3,0.338,1.226,8.466,4,0.333,-0.175,0.009
972312.56357,3,0.340,1.250,8.449,4,0.327,-0.175,0.005,5,-8.456,-26.794,11.775
972312.56478,3,0.345,1.247,8.437,4,0.323,-0.175,0.003
972312.56600,3,0.350,1.250,8.418,4,0.316,-0.176,0.003
972312.56721,3,0.352,1.264,8.394,4,0.309,-0.176,-0.001
972312.56843,3,0.352,1.276,8.382,4,0.303,-0.180,-0.003
972312.56965,3,0.362,1.283,8.377,4,0.294,-0.178,-0.005
972312.57086,3,0.378,1.293,8.379
972312.57208,3,0.390,1.307,8.375,4,0.280,-0.180,-0.008
972312.57329,3,0.400,1.314,8.367
972312.57451,3,0.407,1.324,8.358,4,0.270,-0.180,-0.010,5,-8.475,-26.775,11.588
972312.57572,3,0.412,1.338,8.346,4,0.253,-0.178,-0.016
972312.57694,3,0.412,1.345,8.343,4,0.243,-0.178,-0.017
972312.57815,3,0.409,1.350,8.339
972312.57937,3,0.419,1.353,8.324,4,0.236,-0.178,-0.020
972312.58058,3,0.438,1.365,8.303,4,0.215,-0.175,-0.026
972312.58180,3,0.448,1.381,8.286,4,0.202,-0.172,-0.028
972312.58301,3,0.450,1.386,8.281,4,0.192,-0.172,-0.032
972312.58423,3,0.462,1.391,8.281,4,0.181,-0.165,-0.033,5,-8.606,-26.681,11.775
972312.58544,3,0.467,1.396,8.281,4,0.168,-0.163,-0.036
972312.58666,3,0.457,1.396,8.276,4,0.161,-0.157,-0.040
972312.58787,3,0.455,1.391,8.265
972312.58909,3,0.457,1.396,8.255,4,0.137,-0.146,-0.043
972312.59031,3,0.467,1.410,8.257
972312.59152,3,0.474,1.410,8.262,4,0.112,-0.137,-0.049
972312.59274,3,0.472,1.410,8.267,4,0.101,-0.129,-0.050
972312.59395,3,0.467,1.408,8.267,4,0.088,-0.124,-0.053,5,-8.419,-26.663,11.719
972312.59517,3,0.455,1.410,8.262,4,0.077,-0.115,-0.057
972312.59638,3,0.441,1.420,8.257,4,0.067,-0.111,-0.060
972312.59760,3,0.433,1.427,8.260,4,0.056,-0.106,-0.062
972312.59881,3,0.429,1.432,8.276,4,0.040,-0.098,-0.062
972312.60003,3,0.433,1.434,8.291,4,0.030,-0.090,-0.064
972312.60124,3,0.433,1.437,8.303
972312.60246,3,0.419,1.437,8.320,4,0.006,-0.074,-0.069
972312.60367,3,0.407,1.437,8.346,4,-0.006,-0.067,-0.069,5,-8.400,-26.569,12.038
972312.60489,3,0.398,1.429,8.384
972312.60610,3,0.386,1.415,8.420,4,-0.026,-0.054,-0.071
972312.60732,3,0.374,1.405,8.449,4,-0.040,-0.046,-0.070
972312.60854,3,0.366,1.403,8.470,4,-0.053,-0.037,-0.073
972312.60975,3,0.359,1.398,8.489,4,-0.061,-0.029,-0.072
972312.61097,3,0.345,1.391,8.516
972312.61218,3,0.331,1.386,8.547,4,-0.082,-0.013,-0.076
972312.61340,3,0.323,1.386,8.583,4,-0.096,-0.009,-0.074
972312.61461,3,0.309,1.374,8.614,4,-0.105,0.000,-0.074,5,-8.156,-26.456,11.794
972312.61583,3,0.299,1.348,8.645,4,-0.114,0.007,-0.076
972312.61704,3,0.295,1.331,8.683,4,-0.123,0.014,-0.074
972312.61826,3,0.292,1.321,8.722,4,-0.133,0.025,-0.076
972312.61947,3,0.287,1.312,8.755,4,-0.141,0.034,-0.078
972312.62069,3,0.283,1.298,8.794,4,-0.151,0.042,-0.075
972312.62190,3,0.268,1.281,8.839,4,-0.157,0.046,-0.072
972312.62312,3,0.249,1.262,8.885,4,-0.168,0.054,-0.075
972312.62433,3,0.237,1.247,8.930,4,-0.177,0.063,-0.076,5,-8.269,-26.531,11.869
972312.62555,3,0.225,1.238,8.973,4,-0.182,0.068,-0.076
972312.62677,3,0.213,1.235,9.016,4,-0.192,0.076,-0.076
972312.62798,3,0.203,1.245,9.066,4,-0.197,0.081,-0.074
972312.62920,3,0.191,1.240,9.109,4,-0.206,0.087,-0.074
972312.63041,3,0.175,1.221,9.157
972312.63163,3,0.167,1.209,9.200,4,-0.211,0.093,-0.076
972312.63284,3,0.160,1.202,9.239,4,-0.223,0.109,-0.076
972312.63406,3,0.151,1.185,9.280,4,-0.228,0.112,-0.074,5,-8.138,-26.588,11.738
972312.63527,3,0.144,1.171,9.318,4,-0.229,0.118,-0.072
972312.63649,3,0.139,1.173,9.359,4,-0.236,0.124,-0.076
972312.63770,3,0.122,1.175,9.404,4,-0.242,0.130,-0.073
972312.63892,3,0.100,1.168,9.442,4,-0.245,0.133,-0.074
972312.64013,3,0.093,1.161,9.471,4,-0.248,0.139,-0.074
972312.64135,3,0.081,1.149,9.500
972312.64256,3,0.067,1.147,9.524,4,-0.250,0.142,-0.073
972312.64378,3,0.055,1.135,9.557,4,-0.255,0.150,-0.071,5,-8.306,-26.625,12.094
972312.64499,3,0.036,1.116,9.591,4,-0.259,0.155,-0.072
972312.64621,3,0.022,1.116,9.619,4,-0.257,0.157,-0.068
972312.64743,3,0.014,1.120,9.648
972312.64864,3,0.010,1.125,9.682,4,-0.258,0.160,-0.069
972312.64986,3,0.002,1.130,9.703,4,-0.261,0.165,-0.066
972312.65107,3,-0.017,1.130,9.727
972312.65229,3,-0.036,1.125,9.761,4,-0.260,0.167,-0.063
972312.65350,3,-0.048,1.118,9.794
972312.65472,3,-0.055,1.111,9.816,4,-0.258,0.167,-0.060,5,-8.269,-26.756,12.356
972312.65593,3,-0.069,1.116,9.837,4,-0.258,0.168,-0.058
972312.65715,3,-0.077,1.128,9.852,4,-0.258,0.171,-0.057
972312.65836,3,-0.079,1.130,9.876,4,-0.253,0.169,-0.057
972312.65958,3,-0.077,1.125,9.912,4,-0.251,0.169,-0.052
972312.66079,3,-0.069,1.118,9.926,4,-0.247,0.171,-0.050
972312.66201,3,-0.069,1.120,9.936,4,-0.245,0.172,-0.052
972312.66322,3,-0.067,1.130,9.952,4,-0.236,0.166,-0.046
972312.66444,3,-0.065,1.128,9.974,4,-0.232,0.168,-0.046,5,-8.081,-26.738,12.075
972312.66566,3,-0.062,1.120,9.995,4,-0.226,0.167,-0.046
972312.66687,3,-0.060,1.130,10.017,4,-0.218,0.164,-0.041
972312.66809,3,-0.060,1.140,10.038,4,-0.212,0.162,-0.041
972312.66930,3,-0.062,1.149,10.060,4,-0.204,0.162,-0.038
972312.67052,3,-0.067,1.152,10.074,4,-0.196,0.163,-0.037
972312.67173,3,-0.065,1.161,10.084,4,-0.185,0.160,-0.035
972312.67295,3,-0.062,1.173,10.086,4,-0.182,0.160,-0.035
972312.67416,3,-0.067,1.183,10.094,4,-0.170,0.156,-0.032,5,-8.306,-26.700,12.113
972312.67538,3,-0.067,1.175,10.096
972312.67659,3,-0.060,1.166,10.101,4,-0.158,0.155,-0.033
972312.67781,3,-0.055,1.178,10.115,4,-0.141,0.150,-0.030
972312.67902,3,-0.057,1.190,10.134,4,-0.132,0.147,-0.028
972312.68024,3,-0.062,1.190,10.149,4,-0.123,0.143,-0.028
972312.68145,3,-0.067,1.185,10.156,4,-0.112,0.141,-0.025
972312.68267,3,-0.074,1.180,10.168,4,-0.099,0.136,-0.026
972312.68389,3,-0.077,1.175,10.184,4,-0.088,0.131,-0.024,5,-8.381,-26.719,11.850
972312.68510,3,-0.079,1.185,10.204,4,-0.076,0.129,-0.023
972312.68632,3,-0.086,1.197,10.216,4,-0.065,0.123,-0.022
972312.68753,3,-0.091,1.195,10.218
972312.68875,3,-0.098,1.192,10.232,4,-0.047,0.115,-0.019
972312.68996,3,-0.105,1.187,10.242,4,-0.034,0.107,-0.016
972312.69118,3,-0.108,1.190,10.242,4,-0.022,0.105,-0.016
972312.69239,3,-0.108,1.207,10.249,4,-0.013,0.101,-0.014
972312.69361,3,-0.115,1.214,10.259,4,-0.003,0.097,-0.011
972312.69482,3,-0.120,1.207,10.259,4,0.007,0.092,-0.005,5,-8.475,-26.888,12.113
972312.69604,3,-0.117,1.207,10.254
972312.69725,3,-0.120,1.207,10.244,4,0.029,0.087,-0.001
972312.69847,3,-0.124,1.211,10.239,4,0.034,0.083,0.003
972312.69968,3,-0.132,1.216,10.242,4,0.045,0.084,0.005
972312.70090,3,-0.132,1.211,10.237,4,0.054,0.079,0.010
972312.70211,3,-0.127,1.209,10.228,4,0.061,0.079,0.009
972312.70333,3,-0.136,1.223,10.225,4,0.072,0.078,0.014
972312.70455,3,-0.156,1.231,10.223,4,0.079,0.076,0.022,5,-8.606,-26.756,11.981
972312.70576,3,-0.170,1.235,10.223,4,0.086,0.075,0.024
972312.70698,3,-0.175,1.235,10.235,4,0.091,0.073,0.025
972312.70819,3,-0.184,1.233,10.247,4,0.098,0.073,0.030
972312.70941,3,-0.196,1.226,10.263,4,0.103,0.070,0.035
972312.71062,3,-0.194,1.223,10.275,4,0.108,0.070,0.038
972312.71184,3,-0.189,1.238,10.287,4,0.113,0.067,0.042
972312.71305,3,-0.199,1.247,10.302,4,0.118,0.065,0.049
972312.71427,3,-0.213,1.254,10.314,4,0.122,0.063,0.055,5,-8.400,-26.681,12.169
972312.71548,3,-0.225,1.271,10.323
972312.71670,3,-0.237,1.307,10.340,4,0.127,0.058,0.062
972312.71791,3,-0.244,1.333,10.357
972312.71913,3,-0.242,1.338,10.369,4,0.132,0.052,0.078
972312.72034,3,-0.234,1.338,10.381
972312.72156,3,-0.244,1.341,10.393,4,0.134,0.047,0.088
972312.72278,3,-0.261,1.357,10.398,4,0.135,0.043,0.096
972312.72399,3,-0.270,1.374,10.398,4,0.134,0.041,0.100,5,-8.363,-26.588,11.831
972312.72521,3,-0.280,1.384,10.398,4,0.135,0.040,0.105
972312.72642,3,-0.290,1.391,10.407,4,0.133,0.038,0.114
972312.72764,3,-0.287,1.408,10.412,4,0.133,0.034,0.121
972312.72885,3,-0.275,1.420,10.410
972312.73007,3,-0.261,1.434,10.407,4,0.127,0.034,0.132
972312.73128,3,-0.256,1.446,10.405,4,0.124,0.032,0.138
972312.73250,3,-0.266,1.461,10.410,4,0.121,0.028,0.148
972312.73371,3,-0.275,1.482,10.410,4,0.119,0.028,0.152,5,-8.494,-26.475,11.719
972312.73493,3,-0.268,1.492,10.400,4,0.112,0.029,0.159
972312.73614,3,-0.256,1.496,10.393,4,0.108,0.030,0.163
972312.73736,3,-0.251,1.504,10.388,4,0.105,0.029,0.165
972312.73857,3,-0.237,1.513,10.386
972312.73979,3,-0.220,1.518,10.376,4,0.096,0.029,0.177
972312.74101,3,-0.203,1.513,10.373
972312.74222,3,-0.184,1.518,10.369,4,0.081,0.031,0.186
972312.74344,3,-0.167,1.523,10.369
972312.74465,3,-0.148,1.530,10.369,4,0.078,0.031,0.188,5,-8.719,-26.569,11.944
972312.74587,3,-0.132,1.544,10.359,4,0.070,0.033,0.195
972312.74708,3,-0.110,1.556,10.347,4,0.064,0.031,0.196
972312.74830,3,-0.089,1.559,10.335,4,0.055,0.034,0.200
972312.74951,3,-0.072,1.561,10.326,4,0.050,0.031,0.201
972312.75073,3,-0.045,1.568,10.318,4,0.045,0.033,0.203
972312.75194,3,-0.019,1.580,10.299
972312.75316,3,0.005,1.585,10.275,4,0.039,0.031,0.207
972312.75437,3,0.017,1.583,10.263,4,0.034,0.032,0.207,5,-8.756,-26.831,12.000
972312.75559,3,0.019,1.587,10.244,4,0.029,0.033,0.207
972312.75680,3,0.029,1.595,10.220,4,0.019,0.033,0.208
972312.75802,3,0.053,1.599,10.211
972312.75924,3,0.081,1.602,10.211,4,0.008,0.034,0.211
972312.76045,3,0.100,1.602,10.204,4,0.007,0.034,0.212
972312.76167,3,0.117,1.614,10.182,4,0.003,0.029,0.212
972312.76288,3,0.129,1.628,10.168,4,0.000,0.029,0.213
972312.76410,3,0.132,1.628,10.163,4,-0.002,0.028,0.210,5,-8.906,-26.906,12.319
972312.76531,3,0.139,1.628,10.153
972312.76653,3,0.144,1.623,10.146,4,-0.011,0.022,0.208
972312.76774,3,0.158,1.623,10.137,4,-0.012,0.018,0.207
972312.76896,3,0.172,1.633,10.122,4,-0.012,0.018,0.204
972312.77017,3,0.175,1.640,10.115
972312.77139,3,0.177,1.645,10.120,4,-0.011,0.004,0.201
972312.77260,3,0.189,1.647,10.132
972312.77382,3,0.208,1.647,10.141,4,-0.011,-0.002,0.199,5,-9.113,-26.700,12.206
972312.77503,3,0.215,1.647,10.149,4,-0.008,-0.010,0.195
972312.77625,3,0.223,1.654,10.149,4,-0.008,-0.017,0.191
972312.77746,3,0.225,1.657,10.146,4,-0.005,-0.026,0.190
972312.77868,3,0.230,1.650,10.144,4,-0.002,-0.030,0.186
972312.77990,3,0.244,1.642,10.139,4,0.001,-0.038,0.184
972312.78111,3,0.261,1.635,10.132,4,0.008,-0.049,0.181
972312.78233,3,0.268,1.635,10.127,4,0.009,-0.054,0.180
972312.78354,3,0.266,1.640,10.134,4,0.014,-0.060,0.175,5,-9.263,-26.681,12.356
972312.78476,3,0.263,1.650,10.146,4,0.022,-0.071,0.175
972312.78597,3,0.275,1.669,10.149,4,0.022,-0.076,0.168
972312.78719,3,0.292,1.664,10.137
972312.78840,3,0.304,1.650,10.129,4,0.037,-0.092,0.162
972312.78962,3,0.309,1.645,10.137,4,0.044,-0.102,0.160
972312.79083,3,0.309,1.647,10.144,4,0.052,-0.109,0.159
972312.79205,3,0.309,1.645,10.141,4,0.060,-0.120,0.154
972312.79326,3,0.307,1.630,10.137,4,0.066,-0.125,0.154
972312.79448,3,0.307,1.623,10.129,4,0.073,-0.134,0.151,5,-9.394,-26.775,12.113
972312.79569,3,0.307,1.626,10.125
972312.79691,3,0.307,1.616,10.134,4,0.085,-0.140,0.146
972312.79813,3,0.316,1.595,10.127,4,0.092,-0.147,0.146
972312.79934,3,0.326,1.592,10.108,4,0.102,-0.156,0.143
972312.80056,3,0.326,1.592,10.113,4,0.124,-0.167,0.134
972312.80177,3,0.321,1.578,10.117
972312.80299,3,0.326,1.571,10.117,4,0.138,-0.181,0.129
972312.80420,3,0.333,1.568,10.113,4,0.151,-0.189,0.124,5,-9.656,-26.888,12.281
972312.80542,3,0.338,1.551,10.113,4,0.160,-0.199,0.123
972312.80663,3,0.342,1.537,10.115,4,0.170,-0.204,0.119
972312.80785,3,0.350,1.537,10.110,4,0.177,-0.209,0.114
972312.80906,3,0.345,1.544,10.101,4,0.188,-0.218,0.111
972312.81028,3,0.350,1.549,10.089,4,0.196,-0.223,0.107
972312.81149,3,0.345,1.549,10.089
972312.81271,3,0.335,1.547,10.084,4,0.206,-0.231,0.104
972312.81392,3,0.335,1.551,10.072,4,0.214,-0.236,0.099,5,-9.844,-27.075,12.319
972312.81514,3,0.342,1.554,10.065,4,0.235,-0.249,0.094
972312.81636,3,0.347,1.561,10.055,4,0.243,-0.253,0.091
972312.81757,3,0.357,1.571,10.041,4,0.254,-0.258,0.090
972312.81879,3,0.369,1.578,10.024,4,0.264,-0.266,0.086
972312.82000,3,0.369,1.583,10.003,4,0.273,-0.271,0.078
972312.82122,3,0.383,1.590,9.974,4,0.284,-0.275,0.079
972312.82243,3,0.402,1.597,9.938,4,0.293,-0.279,0.075
972312.82365,3,0.414,1.602,9.904,4,0.298,-0.280,0.072,5,-9.750,-27.019,12.319
972312.82486,3,0.424,1.606,9.873,4,0.306,-0.283,0.071
972312.82608,3,0.431,1.614,9.845,4,0.316,-0.287,0.064
972312.82729,3,0.441,1.623,9.794,4,0.323,-0.288,0.063
972312.82851,3,0.453,1.633,9.741,4,0.332,-0.291,0.062
972312.82972,3,0.457,1.628,9.703,4,0.337,-0.289,0.057
972312.83094,3,0.450,1.623,9.665,4,0.345,-0.294,0.057
972312.83215,3,0.450,1.618,9.634,4,0.349,-0.295,0.054
972312.83337,3,0.462,1.604,9.607,4,0.354,-0.294,0.052
972312.83458,3,0.476,1.592,9.567,4,0.358,-0.296,0.051,5,-9.694,-26.625,12.338
972312.83580,3,0.486,1.585,9.526,4,0.359,-0.295,0.050
972312.83702,3,0.481,1.571,9.490,4,0.364,-0.300,0.047
972312.83823,3,0.486,1.556,9.464,4,0.369,-0.297,0.048
972312.83945,3,0.503,1.547,9.447,4,0.370,-0.303,0.047
972312.84066,3,0.508,1.518,9.438,4,0.370,-0.299,0.045
972312.84188,3,0.505,1.489,9.428,4,0.372,-0.302,0.044
972312.84309,3,0.505,1.475,9.409,4,0.368,-0.300,0.044
972312.84431,3,0.510,1.458,9.387,4,0.366,-0.299,0.042,5,-9.600,-26.606,12.150
972312.84552,3,0.515,1.437,9.366,4,0.364,-0.297,0.042
972312.84674,3,0.520,1.408,9.351,4,0.361,-0.296,0.041
972312.84795,3,0.532,1.379,9.337,4,0.358,-0.294,0.042
972312.84917,3,0.553,1.345,9.323,4,0.356,-0.289,0.043
972312.85038,3,0.563,1.314,9.311,4,0.348,-0.282,0.042
972312.85160,3,0.555,1.283,9.311,4,0.344,-0.274,0.040
972312.85281,3,0.548,1.247,9.320,4,0.336,-0.268,0.039
972312.85403,3,0.543,1.209,9.332,4,0.330,-0.261,0.039,5,-9.525,-26.738,12.338
972312.85525,3,0.541,1.183,9.347,4,0.323,-0.253,0.038
972312.85646,3,0.536,1.154,9.371,4,0.310,-0.245,0.039
972312.85768,3,0.532,1.123,9.406
972312.85889,3,0.529,1.092,9.462,4,0.290,-0.230,0.036
972312.86011,3,0.534,1.058,9.529,4,0.278,-0.223,0.037
972312.86132,3,0.541,1.034,9.605,4,0.267,-0.219,0.036
972312.86254,3,0.534,1.010,9.682,4,0.251,-0.211,0.035
972312.86375,3,0.520,0.994,9.753,4,0.239,-0.209,0.035
972312.86497,3,0.517,0.977,9.842,4,0.228,-0.205,0.036,5,-9.356,-26.813,12.413
972312.86618,3,0.512,0.946,9.931,4,0.215,-0.203,0.036
972312.86740,3,0.505,0.922,10.010,4,0.200,-0.199,0.035
972312.86861,3,0.500,0.922,10.079
972312.86983,3,0.491,0.915,10.144,4,0.169,-0.198,0.036
972312.87104,3,0.476,0.898,10.211,4,0.152,-0.193,0.039
972312.87226,3,0.460,0.888,10.278,4,0.139,-0.191,0.041
972312.87348,3,0.441,0.874,10.350,4,0.124,-0.191,0.043
972312.87469,3,0.426,0.852,10.422,4,0.103,-0.189,0.044,5,-9.450,-26.869,12.713
972312.87591,3,0.400,0.840,10.484,4,0.091,-0.184,0.047
972312.87712,3,0.376,0.833,10.544,4,0.075,-0.184,0.053
972312.87834,3,0.366,0.823,10.594,4,0.062,-0.181,0.052
972312.87955,3,0.347,0.807,10.647,4,0.042,-0.173,0.057
972312.88077,3,0.326,0.802,10.697,4,0.030,-0.170,0.060
972312.88198,3,0.323,0.807,10.745,4,0.016,-0.165,0.061
972312.88320,3,0.319,0.804,10.797,4,0.000,-0.161,0.067
972312.88441,3,0.307,0.800,10.845,4,-0.016,-0.158,0.068,5,-9.263,-26.944,12.675
972312.88563,3,0.295,0.797,10.888,4,-0.027,-0.152,0.073
972312.88684,3,0.287,0.795,10.929,4,-0.043,-0.147,0.074
972312.88806,3,0.283,0.785,10.960,4,-0.055,-0.139,0.077
972312.88927,3,0.273,0.771,10.989,4,-0.066,-0.134,0.085
972312.89049,3,0.263,0.766,11.023,4,-0.082,-0.123,0.086
972312.89170,3,0.261,0.771,11.054,4,-0.091,-0.118,0.087
972312.89292,3,0.268,0.771,11.085,4,-0.099,-0.115,0.093
972312.89414,3,0.270,0.759,11.116,4,-0.110,-0.107,0.093,5,-9.169,-26.719,12.806
972312.89535,3,0.275,0.744,11.157,4,-0.120,-0.099,0.097
972312.89657,3,0.285,0.725,11.195,4,-0.129,-0.094,0.099
972312.89778,3,0.290,0.721,11.219,4,-0.137,-0.086,0.102
972312.89900,3,0.278,0.711,11.243,4,-0.140,-0.084,0.106
972312.90021,3,0.263,0.689,11.274,4,-0.148,-0.078,0.108
972312.90143,3,0.263,0.670,11.307,4,-0.154,-0.073,0.108
972312.90264,3,0.275,0.637,11.336,4,-0.152,-0.070,0.109
972312.90386,3,0.292,0.613,11.360,4,-0.161,-0.064,0.108,5,-9.244,-26.794,12.881
972312.90507,3,0.295,0.618,11.405,4,-0.163,-0.060,0.105
972312.90629,3,0.283,0.610,11.444,4,-0.161,-0.059,0.111
972312.90750,3,0.283,0.596,11.468
972312.90872,3,0.290,0.587,11.494,4,-0.163,-0.056,0.107
972312.90993,3,0.285,0.579,11.513,4,-0.160,-0.053,0.108
972312.91115,3,0.299,0.565,11.525,4,-0.155,-0.053,0.103
972312.91237,3,0.314,0.548,11.535,4,-0.152,-0.054,0.102
972312.91358,3,0.311,0.541,11.549,5,-9.263,-26.906,12.975
972312.91480,3,0.314,0.532,11.566,4,-0.147,-0.054,0.103
972312.91601,3,0.319,0.510,11.585,4,-0.143,-0.054,0.096
972312.91723,3,0.326,0.491,11.604,4,-0.137,-0.052,0.096
972312.91844,3,0.335,0.479,11.611,4,-0.123,-0.057,0.093
972312.91966,3,0.338,0.460,11.607,4,-0.113,-0.056,0.090
972312.92087,3,0.335,0.453,11.609,4,-0.101,-0.058,0.085
972312.92209,3,0.333,0.453,11.616,4,-0.093,-0.062,0.082
972312.92330,3,0.347,0.436,11.611,4,-0.085,-0.062,0.081
972312.92452,3,0.369,0.414,11.600,4,-0.073,-0.063,0.078,5,-9.169,-26.719,13.125
972312.92573,3,0.386,0.398,11.595,4,-0.061,-0.070,0.075
972312.92695,3,0.393,0.388,11.585,4,-0.050,-0.070,0.074
972312.92816,3,0.386,0.371,11.568,4,-0.036,-0.069,0.067
972312.92938,3,0.381,0.354,11.559,4,-0.025,-0.071,0.066
972312.93060,3,0.378,0.347,11.544,4,-0.011,-0.074,0.061
972312.93181,3,0.371,0.338,11.521,4,0.003,-0.075,0.061
972312.93303,3,0.381,0.328,11.494,4,0.013,-0.077,0.056
972312.93424,3,0.390,0.319,11.468,4,0.028,-0.078,0.056,5,-9.263,-26.625,13.181
972312.93546,3,0.388,0.319,11.456,4,0.045,-0.082,0.052
972312.93667,3,0.393,0.321,11.434,4,0.054,-0.080,0.050
972312.93789,3,0.395,0.307,11.401,4,0.070,-0.081,0.049
972312.93910,3,0.395,0.275,11.372,4,0.085,-0.082,0.047
972312.94032,3,0.402,0.256,11.331,4,0.101,-0.080,0.043
972312.94153,3,0.398,0.261,11.293,4,0.113,-0.079,0.041
972312.94275,3,0.386,0.266,11.255,4,0.130,-0.082,0.039
972312.94396,3,0.378,0.251,11.221,4,0.141,-0.078,0.038,5,-9.506,-26.588,13.181
972312.94518,3,0.383,0.244,11.183,4,0.157,-0.078,0.035
972312.94639,3,0.398,0.251,11.142,4,0.173,-0.076,0.032
972312.94761,3,0.405,0.246,11.099,4,0.186,-0.077,0.033
972312.94883,3,0.402,0.239,11.051,4,0.198,-0.073,0.031
972312.95004,3,0.390,0.237,11.003
972312.95126,3,0.388,0.230,10.968,4,0.225,-0.069,0.026
972312.95247,3,0.388,0.225,10.924,4,0.239,-0.064,0.027
972312.95369,3,0.378,0.230,10.871,5,-9.619,-26.531,13.069
972312.95490,3,0.366,0.251,10.819,4,0.250,-0.062,0.025
972312.95612,3,0.350,0.266,10.776,4,0.275,-0.060,0.026
972312.95733,3,0.342,0.261,10.737,4,0.284,-0.059,0.021
972312.95855,3,0.335,0.263,10.687
972312.95976,3,0.331,0.278,10.632,4,0.295,-0.056,0.022
972312.96098,3,0.323,0.290,10.572,4,0.312,-0.057,0.020
972312.96219,3,0.307,0.299,10.505,4,0.319,-0.055,0.020
972312.96341,3,0.275,0.302,10.441,4,0.328,-0.053,0.019
972312.96462,3,0.251,0.307,10.376,5,-9.563,-26.513,13.144
972312.96584,3,0.234,0.323,10.316,4,0.334,-0.052,0.021
972312.96705,3,0.218,0.347,10.247,4,0.347,-0.051,0.021
972312.96827,3,0.201,0.369,10.165,4,0.353,-0.049,0.020
972312.96949,3,0.182,0.383,10.091,4,0.357,-0.047,0.022
972312.97070,3,0.167,0.390,10.015,4,0.358,-0.045,0.022
972312.97192,3,0.144,0.400,9.940,4,0.359,-0.043,0.025
972312.97313,3,0.110,0.402,9.873,4,0.358,-0.043,0.026
972312.97435,3,0.086,0.407,9.806,4,0.363,-0.041,0.028,5,-9.638,-26.400,12.938
972312.97556,3,0.062,0.412,9.739,4,0.360,-0.038,0.029
972312.97678,3,0.045,0.417,9.665
972312.97799,3,0.024,0.417,9.593,4,0.356,-0.036,0.032
972312.97921,3,0.012,0.419,9.521,4,0.353,-0.035,0.038
972312.98042,3,0.010,0.417,9.457,4,0.348,-0.027,0.039
972312.98164,3,-0.012,0.419,9.392,4,0.342,-0.024,0.040
972312.98285,3,-0.033,0.436,9.323,4,0.333,-0.020,0.044
972312.98407,3,-0.048,0.443,9.270,4,0.328,-0.018,0.047,5,-9.731,-26.288,12.863
972312.98528,3,-0.053,0.443,9.227,4,0.316,-0.013,0.050
972312.98650,3,-0.053,0.438,9.186,4,0.309,-0.012,0.053
972312.98772,3,-0.067,0.431,9.153,4,0.297,-0.009,0.057
972312.98893,3,-0.091,0.424,9.114,4,0.287,-0.007,0.058
972312.99015,3,-0.110,0.431,9.074,4,0.274,-0.008,0.063
972312.99136,3,-0.127,0.438,9.038,4,0.262,-0.007,0.068
972312.99258,3,-0.136,0.443,9.009,4,0.251,-0.005,0.067
972312.99379,3,-0.148,0.438,8.975,5,-9.563,-26.194,12.750
972312.99501,3,-0.163,0.426,8.949,4,0.223,-0.001,0.076
972312.99622,3,-0.165,0.424,8.925,4,0.207,-0.001,0.082
972312.99744,3,-0.170,0.429,8.899,4,0.192,0.001,0.082
972312.99865,3,-0.179,0.426,8.880,4,0.174,-0.002,0.086
972312.99987,3,-0.191,0.424,8.865,4,0.161,0.000,0.091
972313.00108,3,-0.201,0.431,8.863,4,0.146,-0.001,0.096
972313.00230,3,-0.211,0.436,8.868,4,0.127,0.000,0.097
972313.00351,3,-0.225,0.436,8.861,4,0.114,0.001,0.102,5,-9.713,-26.306,12.394
972313.00473,3,-0.234,0.433,8.849,4,0.098,-0.001,0.108
972313.00595,3,-0.244,0.441,8.849,4,0.080,0.002,0.110
972313.00716,3,-0.258,0.443,8.858,4,0.064,0.000,0.116
972313.00838,3,-0.266,0.436,8.863,4,0.048,0.002,0.121
972313.00959,3,-0.270,0.431,8.870,4,0.033,0.003,0.124
972313.01081,3,-0.263,0.436,8.882,4,0.015,0.000,0.131
972313.01202,3,-0.268,0.450,8.899,4,-0.000,0.001,0.134
972313.01324,3,-0.287,0.469,8.916,4,-0.020,0.003,0.141
972313.01445,3,-0.285,0.474,8.928,4,-0.031,0.003,0.143,5,-9.731,-26.325,12.319
972313.01567,3,-0.280,0.469,8.942,4,-0.044,0.001,0.147
972313.01688,3,-0.283,0.469,8.961,4,-0.059,0.002,0.154
972313.01810,3,-0.283,0.469,8.968,4,-0.074,0.002,0.157
972313.01931,3,-0.280,0.469,8.980,4,-0.089,0.003,0.159
972313.02053,3,-0.290,0.472,9.002
972313.02174,3,-0.304,0.472,9.028,4,-0.114,-0.001,0.171
972313.02296,3,-0.299,0.472,9.050,4,-0.126,0.000,0.176
972313.02417,3,-0.292,0.479,9.071,4,-0.137,-0.001,0.178,5,-9.506,-26.344,12.225
972313.02539,3,-0.285,0.481,9.098,4,-0.146,-0.002,0.182
972313.02661,3,-0.268,0.486,9.119
972313.02782,3,-0.261,0.491,9.141,4,-0.159,-0.004,0.185
972313.02904,3,-0.270,0.484,9.169,4,-0.171,-0.004,0.190
972313.03025,3,-0.283,0.479,9.200,4,-0.189,-0.006,0.198
972313.03147,3,-0.280,0.488,9.232,4,-0.195,-0.006,0.201
972313.03268,3,-0.263,0.486,9.258,4,-0.204,-0.007,0.205
972313.03390,3,-0.244,0.476,9.284,4,-0.214,-0.010,0.210,5,-9.431,-26.306,12.338
972313.03511,3,-0.232,0.476,9.313
972313.03633,3,-0.225,0.474,9.347,4,-0.224,-0.016,0.217
972313.03754,3,-0.220,0.472,9.380,4,-0.231,-0.016,0.219
972313.03876,3,-0.213,0.476,9.411,4,-0.236,-0.019,0.220
972313.03997,3,-0.203,0.474,9.440,4,-0.237,-0.023,0.224
972313.04119,3,-0.196,0.457,9.473,4,-0.243,-0.028,0.224
972313.04240,3,-0.184,0.436,9.505,4,-0.243,-0.029,0.230
972313.04362,3,-0.170,0.431,9.536,4,-0.245,-0.034,0.232,5,-9.413,-26.306,12.581
972313.04484,3,-0.153,0.431,9.560,4,-0.243,-0.035,0.231
972313.04605,3,-0.139,0.426,9.572,4,-0.245,-0.040,0.235
972313.04727,3,-0.129,0.414,9.596,4,-0.244,-0.043,0.239
972313.04848,3,-0.124,0.393,9.629,4,-0.242,-0.048,0.240
972313.04970,3,-0.117,0.374,9.667,4,-0.240,-0.049,0.243
972313.05091,3,-0.103,0.359,9.698,4,-0.239,-0.051,0.240
972313.05213,3,-0.084,0.350,9.722,4,-0.236,-0.058,0.243
972313.05334,3,-0.069,0.342,9.741
972313.05456,3,-0.057,0.345,9.758,4,-0.223,-0.066,0.245,5,-9.300,-26.531,12.975
972313.05577,3,-0.041,0.345,9.770,4,-0.223,-0.067,0.244
972313.05699,3,-0.017,0.340,9.777
972313.05820,3,0.010,0.331,9.775,4,-0.209,-0.073,0.246
972313.05942,3,0.017,0.319,9.785,4,-0.202,-0.079,0.246
972313.06063,3,0.024,0.311,9.797,4,-0.194,-0.081,0.248
972313.06185,3,0.031,0.299,9.799,4,-0.189,-0.084,0.246
972313.06307,3,0.033,0.295,9.806,4,-0.179,-0.085,0.246
972313.06428,3,0.050,0.290,9.818,4,-0.171,-0.088,0.247,5,-9.094,-26.644,12.956
972313.06550,3,0.074,0.287,9.826,4,-0.163,-0.091,0.248
972313.06671,3,0.086,0.290,9.830,4,-0.156,-0.095,0.245
972313.06793,3,0.093,0.290,9.837,4,-0.146,-0.094,0.245
972313.06914,3,0.110,0.287,9.847,4,-0.135,-0.096,0.246
972313.07036,3,0.127,0.285,9.847,4,-0.126,-0.101,0.246
972313.07157,3,0.146,0.275,9.840,4,-0.118,-0.105,0.243
972313.07279,3,0.158,0.266,9.835,4,-0.105,-0.106,0.240
972313.07400,3,0.165,0.268,9.823,4,-0.095,-0.110,0.244,5,-9.356,-26.963,12.975
972313.07522,3,0.170,0.278,9.808,4,-0.086,-0.113,0.239
972313.07643,3,0.170,0.283,9.787,4,-0.074,-0.112,0.239
972313.07765,3,0.165,0.285,9.770
972313.07886,3,0.165,0.297,9.758,4,-0.055,-0.118,0.237
972313.08008,3,0.163,0.309,9.737,4,-0.041,-0.119,0.234
972313.08129,3,0.160,0.311,9.718,4,-0.033,-0.119,0.231
972313.08251,3,0.170,0.311,9.694,4,-0.021,-0.121,0.231
972313.08373,3,0.170,0.309,9.663,4,-0.010,-0.123,0.229
972313.08494,3,0.167,0.323,9.627,4,0.002,-0.121,0.228,5,-9.338,-27.000,13.425
972313.08616,3,0.167,0.350,9.593
972313.08737,3,0.170,0.366,9.564,4,0.023,-0.124,0.226
972313.08859,3,0.182,0.378,9.536,4,0.033,-0.122,0.221
972313.08980,3,0.194,0.390,9.500,4,0.041,-0.120,0.219
972313.09102,3,0.208,0.393,9.459,4,0.053,-0.120,0.218
972313.09223,3,0.215,0.402,9.423,4,0.063,-0.118,0.215
972313.09345,3,0.218,0.419,9.392,4,0.075,-0.120,0.215
972313.09466,3,0.218,0.431,9.366,4,0.087,-0.121,0.213,5,-9.431,-27.094,13.463
972313.09588,3,0.225,0.441,9.332,4,0.095,-0.119,0.207
972313.09709,3,0.239,0.457,9.304,4,0.104,-0.119,0.204
972313.09831,3,0.256,0.481,9.268,4,0.114,-0.118,0.201
972313.09952,3,0.275,0.496,9.236,4,0.125,-0.119,0.199
972313.10074,3,0.275,0.500,9.208,4,0.135,-0.121,0.198
972313.10196,3,0.273,0.508,9.167,4,0.142,-0.117,0.190
972313.10317,3,0.275,0.520,9.124
972313.10439,3,0.268,0.536,9.071,4,0.161,-0.121,0.184,5,-9.619,-27.000,13.406
972313.10560,3,0.263,0.553,9.019
972313.10682,3,0.268,0.567,8.978,4,0.170,-0.120,0.178
972313.10803,3,0.273,0.587,8.942,4,0.177,-0.120,0.174
972313.10925,3,0.275,0.603,8.892,4,0.192,-0.122,0.165
972313.11046,3,0.273,0.618,8.837,4,0.199,-0.121,0.160
972313.11168,3,0.266,0.639,8.782,4,0.207,-0.118,0.154
972313.11289,3,0.261,0.663,8.729,4,0.209,-0.118,0.150
972313.11411,3,0.263,0.677,8.678,4,0.214,-0.120,0.147,5,-9.731,-27.094,13.331
972313.11532,3,0.261,0.701,8.621,4,0.219,-0.114,0.141
972313.11654,3,0.263,0.713,8.568,4,0.224,-0.115,0.135
972313.11775,3,0.270,0.733,8.506,4,0.228,-0.110,0.129
972313.11897,3,0.270,0.766,8.451,4,0.232,-0.107,0.121
972313.12019,3,0.268,0.780,8.408,4,0.237,-0.104,0.119
972313.12140,3,0.261,0.795,8.353,4,0.240,-0.099,0.112
972313.12262,3,0.254,0.816,8.288,4,0.242,-0.095,0.106
972313.12383,3,0.256,0.823,8.231,4,0.242,-0.090,0.102,5,-9.956,-27.094,13.125
972313.12505,3,0.256,0.828,8.181,4,0.244,-0.089,0.097
972313.12626,3,0.261,0.845,8.130,4,0.242,-0.081,0.091
972313.12748,3,0.263,0.869,8.085,4,0.242,-0.078,0.086
972313.12869,3,0.261,0.886,8.037,4,0.240,-0.073,0.084
972313.12991,3,0.256,0.891,7.984,4,0.240,-0.068,0.079
972313.13112,3,0.256,0.900,7.944,4,0.232,-0.065,0.075
972313.13234,3,0.261,0.919,7.915,4,0.233,-0.060,0.069
972313.13355,3,0.266,0.941,7.879
972313.13477,3,0.270,0.965,7.838,4,0.220,-0.052,0.057,5,-10.088,-27.000,12.994
972313.13598,3,0.270,0.982,7.800,4,0.212,-0.046,0.056
972313.13720,3,0.275,0.994,7.769,4,0.207,-0.047,0.054
972313.13842,3,0.270,1.003,7.738,4,0.201,-0.043,0.045
972313.13963,3,0.256,1.013,7.704,4,0.193,-0.039,0.042
972313.14085,3,0.244,1.032,7.676
972313.14206,3,0.234,1.046,7.652,4,0.183,-0.034,0.036
972313.14328,3,0.227,1.056,7.630,4,0.177,-0.032,0.031
972313.14449,3,0.234,1.063,7.597,4,0.153,-0.025,0.023,5,-10.200,-27.056,12.956
972313.14571,3,0.246,1.073,7.572,4,0.144,-0.019,0.018
972313.14692,3,0.254,1.075,7.558
972313.14814,3,0.246,1.077,7.546,4,0.132,-0.018,0.014
972313.14935,3,0.237,1.101,7.539,4,0.108,-0.012,0.004
972313.15057,3,0.237,1.125,7.532,4,0.097,-0.007,-0.001
972313.15178,3,0.234,1.142,7.525,4,0.085,-0.004,-0.007
972313.15300,3,0.230,1.144,7.517
972313.15421,3,0.213,1.135,7.517,4,0.063,0.001,-0.017,5,-10.294,-27.000,13.031
972313.15543,3,0.203,1.144,7.515,4,0.049,0.003,-0.022
972313.15664,3,0.208,1.168,7.505,4,0.038,0.003,-0.027
972313.15786,3,0.208,1.180,7.505,4,0.025,0.007,-0.032
972313.15908,3,0.196,1.185,7.510,4,0.014,0.008,-0.035
972313.16029,3,0.182,1.195,7.513,4,0.000,0.007,-0.042
972313.16151,3,0.170,1.202,7.525,4,-0.014,0.009,-0.046
972313.16272,3,0.163,1.202,7.529,4,-0.024,0.011,-0.052
972313.16394,3,0.153,1.207,7.534,4,-0.039,0.012,-0.056,5,-10.369,-27.038,12.900
972313.16515,3,0.132,1.216,7.551,4,-0.050,0.012,-0.061
972313.16637,3,0.103,1.235,7.568,4,-0.063,0.015,-0.061
972313.16758,3,0.074,1.262,7.587,4,-0.072,0.014,-0.065
972313.16880,3,0.062,1.271,7.601,4,-0.087,0.014,-0.067
972313.17001,3,0.050,1.271,7.616,4,-0.098,0.017,-0.070
972313.17123,3,0.033,1.283,7.637,4,-0.109,0.015,-0.071
972313.17244,3,0.012,1.293,7.656,4,-0.119,0.015,-0.073
972313.17366,3,-0.007,1.298,7.678,4,-0.132,0.016,-0.074,5,-10.519,-27.019,12.825
972313.17487,3,-0.022,1.302,7.697
972313.17609,3,-0.029,1.312,7.716,4,-0.152,0.015,-0.078
972313.17731,3,-0.043,1.309,7.745,4,-0.162,0.017,-0.082
972313.17852,3,-0.067,1.302,7.776,4,-0.171,0.014,-0.082
972313.17974,3,-0.086,1.309,7.802,4,-0.180,0.016,-0.083
972313.18095,3,-0.091,1.309,7.831,4,-0.192,0.015,-0.083
972313.18217,3,-0.103,1.307,7.853,4,-0.200,0.014,-0.085
972313.18338,3,-0.112,1.317,7.869,4,-0.207,0.014,-0.085
972313.18460,3,-0.115,1.321,7.896,4,-0.215,0.015,-0.087,5,-10.575,-27.113,12.975
972313.18581,3,-0.112,1.329,7.915,4,-0.227,0.017,-0.085
972313.18703,3,-0.110,1.333,7.941,4,-0.232,0.017,-0.085
972313.18824,3,-0.108,1.321,7.965,4,-0.241,0.019,-0.085
972313.18946,3,-0.103,1.309,7.984,4,-0.247,0.020,-0.086
972313.19067,3,-0.103,1.312,8.013,4,-0.250,0.019,-0.087
972313.19189,3,-0.115,1.312,8.042,4,-0.260,0.021,-0.085
972313.19310,3,-0.127,1.298,8.073,4,-0.263,0.025,-0.086
972313.19432,3,-0.141,1.281,8.104,4,-0.273,0.025,-0.087,5,-10.538,-26.813,13.256
972313.19554,3,-0.146,1.274,8.135,4,-0.276,0.028,-0.085
972313.19675,3,-0.134,1.278,8.171
972313.19797,3,-0.115,1.278,8.202,4,-0.291,0.032,-0.084
972313.19918,3,-0.115,1.264,8.221,4,-0.293,0.033,-0.083
972313.20040,3,-0.117,1.245,8.248
972313.20161,3,-0.124,1.233,8.284,4,-0.304,0.041,-0.084
972313.20283,3,-0.124,1.233,8.322,4,-0.308,0.043,-0.085
972313.20404,3,-0.105,1.238,8.360,4,-0.312,0.048,-0.087,5,-10.463,-26.831,13.331
972313.20526,3,-0.096,1.219,8.394,4,-0.315,0.049,-0.087
972313.20647,3,-0.098,1.197,8.422,4,-0.322,0.050,-0.087
972313.20769,3,-0.100,1.187,8.461,4,-0.324,0.052,-0.082
972313.20890,3,-0.105,1.187,8.513,4,-0.327,0.057,-0.083
972313.21012,3,-0.115,1.187,8.554,4,-0.332,0.059,-0.083
972313.21133,3,-0.117,1.192,8.592,4,-0.333,0.062,-0.082
972313.21255,3,-0.110,1.192,8.623,4,-0.335,0.064,-0.084
972313.21376,3,-0.110,1.183,8.647,4,-0.339,0.068,-0.083,5,-10.463,-26.831,13.425
972313.21498,3,-0.120,1.180,8.674,4,-0.342,0.072,-0.082
972313.21620,3,-0.139,1.183,8.705,4,-0.345,0.070,-0.083
972313.21741,3,-0.148,1.192,8.746,4,-0.348,0.073,-0.079
972313.21863,3,-0.136,1.190,8.777,4,-0.349,0.074,-0.080
972313.21984,3,-0.132,1.171,8.810,4,-0.349,0.076,-0.080
972313.22106,3,-0.141,1.164,8.853
972313.22227,3,-0.156,1.161,8.889,4,-0.355,0.083,-0.077
972313.22349,3,-0.175,1.154,8.916,4,-0.357,0.086,-0.078,5,-10.631,-26.681,13.631
972313.22470,3,-0.182,1.152,8.944,4,-0.357,0.087,-0.074
972313.22592,3,-0.189,1.149,8.978
972313.22713,3,-0.194,1.152,9.014,4,-0.358,0.090,-0.074
972313.22835,3,-0.191,1.147,9.052,4,-0.358,0.095,-0.072
972313.22956,3,-0.196,1.137,9.074,4,-0.358,0.096,-0.069
972313.23078,3,-0.211,1.140,9.098,4,-0.360,0.099,-0.068
972313.23199,3,-0.220,1.135,9.131,4,-0.358,0.100,-0.066
972313.23321,3,-0.232,1.132,9.162,4,-0.357,0.104,-0.066,5,-10.556,-26.663,13.575
972313.23443,3,-0.246,1.142,9.191,4,-0.357,0.105,-0.065
972313.23564,3,-0.254,1.147,9.210,4,-0.352,0.107,-0.062
972313.23686,3,-0.263,1.152,9.241,4,-0.354,0.112,-0.060
972313.23807,3,-0.268,1.161,9.277,4,-0.354,0.114,-0.059
972313.23929,3,-0.266,1.171,9.299,4,-0.351,0.114,-0.058
972313.24050,3,-0.268,1.173,9.311,4,-0.353,0.118,-0.055
972313.24172,3,-0.280,1.166,9.323,4,-0.350,0.117,-0.051
972313.24293,3,-0.290,1.161,9.344,4,-0.345,0.123,-0.049
972313.24415,3,-0.302,1.161,9.375,4,-0.345,0.123,-0.047,5,-10.650,-26.569,13.481
972313.24536,3,-0.309,1.166,9.397
972313.24658,3,-0.304,1.175,9.423,4,-0.338,0.128,-0.039
972313.24779,3,-0.309,1.180,9.445,4,-0.336,0.131,-0.040
972313.24901,3,-0.316,1.180,9.469,4,-0.335,0.132,-0.038
972313.25022,3,-0.321,1.183,9.488,4,-0.330,0.133,-0.035
972313.25144,3,-0.323,1.187,9.507,4,-0.327,0.133,-0.034
972313.25266,3,-0.321,1.187,9.533,4,-0.325,0.136,-0.031
972313.25387,3,-0.328,1.180,9.557,4,-0.320,0.133,-0.028,5,-10.575,-26.288,13.388
972313.25509,3,-0.335,1.178,9.574
972313.25630,3,-0.342,1.185,9.591,4,-0.317,0.137,-0.030
972313.25752,3,-0.352,1.183,9.603,4,-0.310,0.136,-0.023
972313.25873,3,-0.359,1.183,9.607,4,-0.305,0.134,-0.024
972313.25995,3,-0.362,1.180,9.612,4,-0.301,0.137,-0.019
972313.26116,3,-0.366,1.178,9.624,4,-0.298,0.137,-0.019
972313.26238,3,-0.369,1.183,9.641,4,-0.295,0.136,-0.019
972313.26359,3,-0.374,1.178,9.658,5,-10.331,-26.231,13.519
972313.26481,3,-0.378,1.180,9.665,4,-0.284,0.131,-0.016
972313.26602,3,-0.371,1.192,9.677,4,-0.283,0.131,-0.013
972313.26724,3,-0.366,1.187,9.696,4,-0.274,0.128,-0.011
972313.26845,3,-0.386,1.183,9.706,4,-0.270,0.125,-0.012
972313.26967,3,-0.405,1.185,9.720
972313.27088,3,-0.405,1.183,9.739,4,-0.266,0.122,-0.011
972313.27210,3,-0.402,1.171,9.756,4,-0.259,0.119,-0.011
972313.27332,3,-0.407,1.173,9.782,4,-0.251,0.112,-0.009
972313.27453,3,-0.414,1.183,9.799,4,-0.248,0.111,-0.008,5,-10.425,-26.400,13.219
972313.27575,3,-0.417,1.185,9.813
972313.27696,3,-0.409,1.178,9.828,4,-0.235,0.103,-0.007
972313.27818,3,-0.402,1.171,9.847,4,-0.230,0.098,-0.009
972313.27939,3,-0.395,1.156,9.861,4,-0.223,0.094,-0.009
972313.28061,3,-0.393,1.137,9.873,4,-0.219,0.088,-0.007
972313.28182,3,-0.405,1.137,9.888
972313.28304,3,-0.424,1.147,9.907,4,-0.206,0.078,-0.010
972313.28425,3,-0.429,1.159,9.919,5,-10.294,-26.175,12.975
972313.28547,3,-0.419,1.173,9.928,4,-0.193,0.067,-0.009
972313.28668,3,-0.419,1.178,9.940,4,-0.185,0.064,-0.009
972313.28790,3,-0.433,1.173,9.940
972313.28911,3,-0.445,1.175,9.933,4,-0.167,0.052,-0.007
972313.29033,3,-0.445,1.178,9.926,4,-0.163,0.047,-0.006
972313.29155,3,-0.448,1.175,9.921,4,-0.157,0.042,-0.006
972313.29276,3,-0.450,1.178,9.928,4,-0.146,0.034,-0.006
972313.29398,3,-0.453,1.180,9.943,4,-0.138,0.029,-0.006,5,-10.294,-26.063,12.788
972313.29519,3,-0.465,1.185,9.950,4,-0.130,0.023,-0.006
972313.29641,3,-0.476,1.190,9.950,4,-0.123,0.018,-0.006
972313.29762,3,-0.484,1.192,9.952,4,-0.113,0.011,-0.003
972313.29884,3,-0.486,1.204,9.960
972313.30005,3,-0.486,1.207,9.964
972313.30127,3,-0.479,1.199,9.976,4,-0.086,-0.008,-0.000
972313.30248,3,-0.481,1.197,9.988,4,-0.075,-0.015,-0.001
972313.30370,3,-0.496,1.202,9.998,4,-0.065,-0.022,0.001,5,-10.200,-26.213,12.563
972313.30491,3,-0.500,1.209,9.995,4,-0.055,-0.028,0.003
972313.30613,3,-0.488,1.219,9.983,4,-0.048,-0.034,0.003
972313.30734,3,-0.472,1.226,9.974,4,-0.036,-0.043,0.005
972313.30856,3,-0.469,1.219,9.971,4,-0.025,-0.049,0.007
972313.30978,3,-0.472,1.209,9.962,4,-0.014,-0.056,0.006
972313.31099,3,-0.462,1.197,9.957,4,-0.006,-0.062,0.007
972313.31221,3,-0.453,1.195,9.945
972313.31342,3,-0.441,1.207,9.928,4,0.014,-0.075,0.008
972313.31464,3,-0.431,1.204,9.926,4,0.028,-0.082,0.007,5,-10.106,-26.250,12.525
972313.31585,3,-0.424,1.207,9.924,4,0.036,-0.085,0.007
972313.31707,3,-0.421,1.204,9.914,4,0.049,-0.094,0.007
972313.31828,3,-0.426,1.199,9.902,4,0.054,-0.098,0.006
972313.31950,3,-0.424,1.195,9.883
972313.32071,3,-0.409,1.204,9.869,4,0.077,-0.110,0.005
972313.32193,3,-0.393,1.209,9.852
972313.32314,3,-0.383,1.209,9.849,4,0.095,-0.120,0.003
972313.32436,3,-0.383,1.214,9.847,5,-10.013,-26.475,12.581
972313.32557,3,-0.369,1.216,9.826,4,0.114,-0.126,-0.001
972313.32679,3,-0.352,1.219,9.813,4,0.122,-0.129,-0.003
972313.32801,3,-0.340,1.226,9.811,4,0.130,-0.132,-0.007
972313.32922,3,-0.321,1.231,9.794,4,0.141,-0.134,-0.008
972313.33044,3,-0.304,1.235,9.777,4,0.147,-0.139,-0.010
972313.33165,3,-0.304,1.240,9.770,4,0.153,-0.138,-0.012
972313.33287,3,-0.307,1.235,9.753,4,0.163,-0.143,-0.015
972313.33408,3,-0.295,1.228,9.734,4,0.169,-0.145,-0.018,5,-10.069,-26.831,12.469
972313.33530,3,-0.275,1.231,9.727,4,0.175,-0.146,-0.020
972313.33651,3,-0.254,1.242,9.722
972313.33773,3,-0.246,1.250,9.720,4,0.185,-0.145,-0.025
972313.33894,3,-0.251,1.250,9.708,4,0.189,-0.145,-0.028
972313.34016,3,-0.244,1.254,9.696,4,0.196,-0.146,-0.030
972313.34137,3,-0.234,1.264,9.686,4,0.199,-0.145,-0.031
972313.34259,3,-0.239,1.266,9.672,4,0.204,-0.146,-0.036
972313.34380,3,-0.242,1.266,9.663,4,0.207,-0.147,-0.038,5,-10.238,-26.700,12.150
972313.34502,3,-0.237,1.269,9.663,4,0.209,-0.144,-0.042
972313.34623,3,-0.237,1.276,9.655,4,0.212,-0.143,-0.049
972313.34745,3,-0.232,1.269,9.646,4,0.215,-0.144,-0.049
972313.34867,3,-0.218,1.257,9.634,4,0.215,-0.143,-0.051
972313.34988,3,-0.201,1.252,9.627,4,0.215,-0.139,-0.057
972313.35110,3,-0.187,1.259,9.627,4,0.217,-0.138,-0.058
972313.35231,3,-0.175,1.262,9.619,4,0.217,-0.137,-0.063
972313.35353,3,-0.158,1.259,9.612,4,0.215,-0.137,-0.068,5,-10.144,-26.869,12.150
972313.35474,3,-0.144,1.259,9.615,4,0.215,-0.134,-0.072
972313.35596,3,-0.139,1.257,9.622,4,0.214,-0.135,-0.075
972313.35717,3,-0.151,1.259,9.639,4,0.212,-0.132,-0.077
972313.35839,3,-0.151,1.262,9.653,4,0.214,-0.134,-0.082
972313.35960,3,-0.124,1.262,9.658,4,0.208,-0.129,-0.087
972313.36082,3,-0.110,1.281,9.660,4,0.209,-0.130,-0.091
972313.36203,3,-0.117,1.293,9.667,4,0.204,-0.128,-0.096
972313.36325,3,-0.122,1.288,9.672,4,0.205,-0.129,-0.100
972313.36446,3,-0.117,1.298,9.684,4,0.200,-0.126,-0.106,5,-10.256,-26.925,12.206
972313.36568,3,-0.120,1.300,9.696,4,0.197,-0.125,-0.109
972313.36690,3,-0.134,1.298,9.706
972313.36811,3,-0.139,1.312,9.718,4,0.196,-0.124,-0.118
972313.36933,3,-0.141,1.331,9.722,4,0.194,-0.123,-0.121
972313.37054,3,-0.141,1.336,9.734,4,0.192,-0.120,-0.126
972313.37176,3,-0.144,1.338,9.751,4,0.190,-0.120,-0.130
972313.37297,3,-0.153,1.341,9.761,4,0.188,-0.120,-0.134
972313.37419,3,-0.156,1.338,9.768,4,0.185,-0.119,-0.135,5,-9.994,-27.000,12.019
972313.37540,3,-0.146,1.345,9.777
972313.37662,3,-0.146,1.355,9.777,4,0.182,-0.118,-0.140
972313.37783,3,-0.158,1.350,9.773,4,0.178,-0.116,-0.140
972313.37905,3,-0.165,1.353,9.785,4,0.176,-0.114,-0.144
972313.38026,3,-0.170,1.360,9.797,4,0.167,-0.110,-0.150
972313.38148,3,-0.165,1.367,9.806,4,0.167,-0.109,-0.148
972313.38269,3,-0.156,1.369,9.823,4,0.164,-0.109,-0.151
972313.38391,3,-0.156,1.367,9.842,4,0.159,-0.101,-0.152,5,-10.219,-26.906,11.906
972313.38513,3,-0.163,1.372,9.852,4,0.158,-0.098,-0.158
972313.38634,3,-0.165,1.367,9.852,4,0.155,-0.097,-0.157
972313.38756,3,-0.170,1.367,9.845,4,0.155,-0.094,-0.159
972313.38877,3,-0.160,1.372,9.840,4,0.149,-0.090,-0.160
972313.38999,3,-0.136,1.372,9.845
972313.39120,3,-0.115,1.374,9.854,4,0.148,-0.086,-0.160
972313.39242,3,-0.096,1.381,9.854,4,0.141,-0.079,-0.165
972313.39363,3,-0.079,1.374,9.849,4,0.137,-0.074,-0.164,5,-10.163,-26.775,11.719
972313.39485,3,-0.072,1.369,9.857,4,0.136,-0.071,-0.165
972313.39606,3,-0.069,1.374,9.871,4,0.131,-0.062,-0.164
972313.39728,3,-0.069,1.381,9.883
972313.39849,3,-0.069,1.381,9.895,4,0.131,-0.058,-0.168
972313.39971,3,-0.065,1.369,9.895,4,0.125,-0.050,-0.167
972313.40092,3,-0.055,1.355,9.888,4,0.123,-0.042,-0.165
972313.40214,3,-0.048,1.350,9.883,4,0.119,-0.035,-0.168
972313.40335,3,-0.043,1.341,9.888,4,0.117,-0.028,-0.167
972313.40457,3,-0.026,1.326,9.897,4,0.113,-0.019,-0.170,5,-10.069,-26.644,11.719
972313.40579,3,-0.010,1.329,9.904,4,0.111,-0.011,-0.170
972313.40700,3,0.005,1.333,9.909,4,0.109,-0.005,-0.170
972313.40822,3,0.014,1.331,9.928,4,0.104,0.002,-0.170
972313.40943,3,0.022,1.329,9.938,4,0.100,0.011,-0.171
972313.41065,3,0.029,1.321,9.933,4,0.100,0.016,-0.172
972313.41186,3,0.036,1.307,9.936,4,0.100,0.025,-0.171
972313.41308,3,0.038,1.298,9.940,4,0.097,0.031,-0.174
972313.41429,3,0.031,1.290,9.945,5,-10.106,-26.550,11.813
972313.41551,3,0.031,1.278,9.943,4,0.094,0.038,-0.173
972313.41672,3,0.029,1.271,9.931,4,0.088,0.057,-0.173
972313.41794,3,0.022,1.262,9.931
972313.41915,3,0.026,1.264,9.938,4,0.081,0.073,-0.175
972313.42037,3,0.038,1.276,9.933,4,0.079,0.083,-0.174
972313.42158,3,0.033,1.283,9.931,4,0.075,0.095,-0.175
972313.42280,3,0.029,1.283,9.928,4,0.072,0.103,-0.175
972313.42402,3,0.026,1.274,9.921,4,0.069,0.112,-0.174,5,-10.088,-26.588,11.831
972313.42523,3,0.024,1.259,9.924,4,0.066,0.123,-0.178
972313.42645,3,0.017,1.252,9.936,4,0.063,0.132,-0.176
972313.42766,3,0.010,1.257,9.943,4,0.061,0.143,-0.178
972313.42888,3,0.010,1.259,9.938,4,0.056,0.152,-0.178
972313.43009,3,0.012,1.259,9.943,4,0.056,0.158,-0.178
972313.43131,3,-0.005,1.266,9.962,4,0.048,0.171,-0.179
972313.43252,3,-0.026,1.269,9.976,4,0.043,0.180,-0.178
972313.43374,3,-0.041,1.264,9.983,4,0.041,0.192,-0.178,5,-10.313,-26.531,11.888
972313.43495,3,-0.057,1.266,9.995,4,0.033,0.200,-0.182
972313.43617,3,-0.079,1.283,10.012,4,0.030,0.210,-0.180
972313.43738,3,-0.098,1.290,10.031,4,0.026,0.217,-0.180
972313.43860,3,-0.115,1.298,10.050,4,0.023,0.227,-0.181
972313.43981,3,-0.134,1.302,10.065
972313.44103,3,-0.158,1.298,10.091,4,0.010,0.244,-0.180
972313.44225,3,-0.175,1.302,10.125
972313.44346,3,-0.194,1.309,10.158,4,-0.003,0.260,-0.178
972313.44468,3,-0.220,1.329,10.189,4,-0.009,0.263,-0.176,5,-10.219,-26.681,11.981
972313.44589,3,-0.246,1.336,10.208
972313.44711,3,-0.270,1.338,10.237,4,-0.020,0.276,-0.173
972313.44832,3,-0.290,1.341,10.268,4,-0.027,0.279,-0.171
972313.44954,3,-0.314,1.341,10.287,4,-0.030,0.283,-0.168
972313.45075,3,-0.345,1.338,10.299,4,-0.039,0.289,-0.164
972313.45197,3,-0.381,1.350,10.311,4,-0.043,0.294,-0.162
972313.45318,3,-0.402,1.362,10.330,4,-0.048,0.297,-0.159
972313.45440,3,-0.419,1.362,10.342,5,-10.519,-26.400,12.075
972313.45561,3,-0.441,1.357,10.359,4,-0.058,0.302,-0.154
972313.45683,3,-0.455,1.348,10.391,4,-0.071,0.313,-0.146
972313.45804,3,-0.460,1.341,10.417
972313.45926,3,-0.455,1.333,10.436,4,-0.082,0.321,-0.138
972313.46047,3,-0.465,1.333,10.460,4,-0.085,0.323,-0.135
972313.46169,3,-0.472,1.336,10.491,4,-0.088,0.324,-0.132
972313.46291,3,-0.469,1.321,10.522,4,-0.096,0.329,-0.129
972313.46412,3,-0.467,1.305,10.558,5,-10.275,-26.213,12.131
972313.46534,3,-0.457,1.300,10.594,4,-0.104,0.331,-0.121
972313.46655,3,-0.445,1.300,10.620,4,-0.109,0.329,-0.117
972313.46777,3,-0.436,1.298,10.639,4,-0.111,0.331,-0.113
972313.46898,3,-0.431,1.283,10.666,4,-0.116,0.329,-0.113
972313.47020,3,-0.412,1.271,10.699
972313.47141,3,-0.395,1.269,10.735,4,-0.122,0.324,-0.107
972313.47263,3,-0.388,1.266,10.761,4,-0.124,0.322,-0.106
972313.47384,3,-0.383,1.281,10.785,4,-0.127,0.318,-0.102,5,-10.331,-26.250,12.506
972313.47506,3,-0.374,1.281,10.812,4,-0.127,0.313,-0.097
972313.47627,3,-0.359,1.257,10.840
972313.47749,3,-0.331,1.238,10.860,4,-0.133,0.299,-0.092
972313.47870,3,-0.307,1.247,10.867,4,-0.132,0.296,-0.092
972313.47992,3,-0.299,1.259,10.874,4,-0.132,0.289,-0.088
972313.48114,3,-0.285,1.266,10.883
972313.48235,3,-0.273,1.271,10.895,4,-0.130,0.271,-0.085
972313.48357,3,-0.249,1.269,10.893,4,-0.127,0.264,-0.083,5,-10.481,-26.119,12.544
972313.48478,3,-0.227,1.259,10.879,4,-0.127,0.257,-0.081
972313.48600,3,-0.218,1.252,10.862,4,-0.125,0.247,-0.080
972313.48721,3,-0.199,1.254,10.843
972313.48843,3,-0.165,1.254,10.826,4,-0.124,0.238,-0.077
972313.48964,3,-0.132,1.252,10.812,4,-0.113,0.221,-0.077
972313.49086,3,-0.105,1.257,10.788,4,-0.109,0.212,-0.078
972313.49207,3,-0.079,1.257,10.757,4,-0.105,0.202,-0.078
972313.49329,3,-0.048,1.252,10.728,4,-0.099,0.196,-0.078,5,-10.313,-26.025,12.731
972313.49450,3,-0.024,1.257,10.697
972313.49572,3,0.005,1.264,10.661,4,-0.089,0.175,-0.083
972313.49693,3,0.029,1.271,10.625,4,-0.082,0.166,-0.083
972313.49815,3,0.060,1.264,10.577,4,-0.077,0.158,-0.084
972313.49937,3,0.093,1.254,10.529,4,-0.069,0.146,-0.085
972313.50058,3,0.117,1.245,10.493
972313.50180,3,0.139,1.238,10.453,4,-0.055,0.126,-0.092
972313.50301,3,0.151,1.238,10.414
972313.50423,3,0.167,1.238,10.369,4,-0.044,0.116,-0.092,5,-10.219,-26.063,12.788
972313.50544,3,0.194,1.228,10.314,4,-0.035,0.104,-0.095
972313.50666,3,0.211,1.214,10.266,4,-0.028,0.092,-0.097
972313.50787,3,0.227,1.190,10.225,4,-0.013,0.072,-0.104
972313.50909,3,0.246,1.161,10.180,4,-0.005,0.062,-0.109
972313.51030,3,0.254,1.149,10.137,4,0.008,0.053,-0.112
972313.51152,3,0.254,1.144,10.105,4,0.013,0.042,-0.114
972313.51273,3,0.251,1.135,10.079,4,0.021,0.034,-0.116
972313.51395,3,0.246,1.116,10.067,4,0.030,0.024,-0.117,5,-10.163,-26.025,12.919
972313.51516,3,0.244,1.101,10.065
972313.51638,3,0.244,1.092,10.062,4,0.047,0.001,-0.126
972313.51760,3,0.242,1.077,10.062,4,0.052,-0.013,-0.128
972313.51881,3,0.246,1.065,10.070
972313.52003,3,0.249,1.058,10.098,4,0.064,-0.043,-0.133
972313.52124,3,0.246,1.044,10.127
972313.52246,3,0.251,1.032,10.151,4,0.066,-0.074,-0.140
972313.52367,3,0.251,1.022,10.180,4,0.072,-0.090,-0.141,5,-10.444,-25.988,12.975
972313.52489,3,0.261,1.008,10.216
972313.52610,3,0.275,0.998,10.242,4,0.078,-0.129,-0.145
972313.52732,3,0.275,0.986,10.271,4,0.075,-0.147,-0.148
972313.52853,3,0.268,0.965,10.311,4,0.077,-0.167,-0.151
972313.52975,3,0.283,0.958,10.342,4,0.080,-0.186,-0.148
972313.53096,3,0.299,0.960,10.371,4,0.075,-0.202,-0.151
972313.53218,3,0.304,0.955,10.412,4,0.072,-0.221,-0.151
972313.53339,3,0.302,0.946,10.455,4,0.076,-0.241,-0.151
972313.53461,3,0.295,0.941,10.501,4,0.069,-0.258,-0.152,5,-10.350,-26.494,13.013
972313.53582,3,0.299,0.931,10.544,4,0.066,-0.273,-0.154
972313.53704,3,0.314,0.929,10.584,4,0.062,-0.288,-0.154
972313.53826,3,0.319,0.934,10.632,4,0.058,-0.304,-0.152
972313.53947,3,0.319,0.934,10.666,4,0.054,-0.316,-0.154
972313.54069,3,0.328,0.931,10.685,4,0.048,-0.332,-0.152
972313.54190,3,0.335,0.934,10.706,4,0.042,-0.340,-0.154
972313.54312,3,0.333,0.946,10.728,4,0.036,-0.349,-0.154
972313.54433,3,0.338,0.958,10.759,4,0.031,-0.361,-0.153,5,-10.444,-26.681,13.200
972313.54555,3,0.350,0.965,10.783,4,0.028,-0.369,-0.154
972313.54676,3,0.362,0.974,10.809,4,0.022,-0.376,-0.155
972313.54798,3,0.369,0.967,10.833,4,0.018,-0.385,-0.152
972313.54919,3,0.371,0.967,10.857,4,0.007,-0.390,-0.152
972313.55041,3,0.374,0.982,10.898,4,0.005,-0.396,-0.154
972313.55162,3,0.386,0.984,10.948,4,-0.002,-0.401,-0.152
972313.55284,3,0.400,0.986,10.987,4,-0.004,-0.408,-0.155
972313.55405,3,0.417,0.998,11.023,4,-0.011,-0.412,-0.154,5,-10.369,-26.475,12.975
972313.55527,3,0.445,1.010,11.054,4,-0.011,-0.415,-0.152
972313.55649,3,0.472,1.020,11.080,4,-0.015,-0.420,-0.151
972313.55770,3,0.488,1.030,11.090,4,-0.018,-0.422,-0.156
972313.55892,3,0.503,1.030,11.104,4,-0.017,-0.427,-0.154
972313.56013,3,0.512,1.027,11.130,4,-0.019,-0.430,-0.154
972313.56135,3,0.527,1.025,11.142
972313.56256,3,0.546,1.030,11.145,4,-0.020,-0.428,-0.154
972313.56378,3,0.560,1.027,11.145,4,-0.021,-0.422,-0.157,5,-10.313,-26.625,12.844
972313.56499,3,0.570,1.025,11.140,4,-0.019,-0.421,-0.156
972313.56621,3,0.587,1.020,11.123,4,-0.018,-0.415,-0.162
972313.56742,3,0.599,1.003,11.099
972313.56864,3,0.610,0.986,11.063,4,-0.011,-0.403,-0.164
972313.56985,3,0.632,0.982,11.013,4,-0.005,-0.396,-0.165
972313.57107,3,0.649,0.982,10.982,4,-0.005,-0.384,-0.168
972313.57228,3,0.668,0.970,10.956,4,-0.000,-0.374,-0.172
972313.57350,3,0.687,0.951,10.922
972313.57472,3,0.697,0.934,10.883,4,0.011,-0.347,-0.176,5,-10.181,-26.625,12.563
972313.57593,3,0.706,0.915,10.838,4,0.014,-0.332,-0.180
972313.57715,3,0.721,0.886,10.802,4,0.022,-0.314,-0.184
972313.57836,3,0.740,0.845,10.764,4,0.028,-0.302,-0.185
972313.57958,3,0.754,0.823,10.714
972313.58079,3,0.773,0.811,10.656,4,0.041,-0.266,-0.193
972313.58201,3,0.785,0.788,10.606,4,0.051,-0.248,-0.197
972313.58322,3,0.785,0.752,10.565,4,0.059,-0.233,-0.201
972313.58444,3,0.776,0.718,10.513,4,0.066,-0.216,-0.201,5,-10.200,-26.738,12.544
972313.58565,3,0.773,0.694,10.460,4,0.073,-0.198,-0.204
972313.58687,3,0.778,0.668,10.405,4,0.079,-0.178,-0.209
972313.58808,3,0.776,0.642,10.359,4,0.089,-0.164,-0.209
972313.58930,3,0.773,0.620,10.323,4,0.096,-0.147,-0.211
972313.59051,3,0.766,0.599,10.280,4,0.099,-0.126,-0.214
972313.59173,3,0.742,0.577,10.230,4,0.103,-0.108,-0.214
972313.59294,3,0.718,0.558,10.180,4,0.110,-0.093,-0.216
972313.59416,3,0.694,0.541,10.134,4,0.114,-0.076,-0.216,5,-9.825,-26.569,12.600
972313.59538,3,0.666,0.520,10.091,4,0.117,-0.058,-0.220
972313.59659,3,0.632,0.510,10.046
972313.59781,3,0.613,0.508,10.007,4,0.125,-0.043,-0.222
972313.59902,3,0.601,0.500,9.969,4,0.128,-0.029,-0.219
972313.60024,3,0.577,0.491,9.936,4,0.134,0.000,-0.222
972313.60145,3,0.541,0.479,9.902,4,0.133,0.018,-0.223
972313.60267,3,0.517,0.469,9.864,4,0.139,0.030,-0.223
972313.60388,3,0.515,0.457,9.837,4,0.135,0.045,-0.226,5,-9.469,-26.700,12.544
972313.60510,3,0.496,0.450,9.813,4,0.138,0.056,-0.226
972313.60631,3,0.467,0.436,9.782,4,0.140,0.068,-0.229
972313.60753,3,0.450,0.433,9.758,4,0.136,0.081,-0.231
972313.60874,3,0.436,0.436,9.741
972313.60996,3,0.412,0.431,9.732,4,0.135,0.092,-0.231
972313.61117,3,0.383,0.431,9.730,4,0.136,0.100,-0.234
972313.61239,3,0.359,0.436,9.718,4,0.132,0.117,-0.238
972313.61361,3,0.335,0.431,9.701,4,0.127,0.127,-0.239,5,-9.394,-26.569,12.638
972313.61482,3,0.316,0.436,9.689,4,0.124,0.129,-0.242
972313.61604,3,0.299,0.443,9.684
972313.61725,3,0.290,0.443,9.682,4,0.116,0.141,-0.248
972313.61847,3,0.283,0.443,9.686,4,0.113,0.144,-0.251
972313.61968,3,0.263,0.450,9.689,4,0.109,0.149,-0.251
972313.62090,3,0.230,0.465,9.689,4,0.105,0.145,-0.253
972313.62211,3,0.206,0.474,9.689
972313.62333,3,0.194,0.476,9.691,4,0.096,0.145,-0.258
972313.62454,3,0.172,0.474,9.684,4,0.092,0.146,-0.258,5,-9.131,-26.738,12.525
972313.62576,3,0.146,0.484,9.674,4,0.091,0.142,-0.261
972313.62697,3,0.117,0.498,9.670,4,0.083,0.140,-0.262
972313.62819,3,0.093,0.500,9.679
972313.62940,3,0.081,0.493,9.682,4,0.076,0.134,-0.265
972313.63062,3,0.053,0.496,9.672
972313.63184,3,0.019,0.505,9.677,4,0.065,0.121,-0.266
972313.63305,3,0.000,0.503,9.689,4,0.063,0.115,-0.264
972313.63427,3,-0.024,0.488,9.696,5,-9.113,-26.813,12.413
972313.63548,3,-0.045,0.479,9.694,4,0.050,0.101,-0.264
972313.63670,3,-0.057,0.479,9.689,4,0.047,0.092,-0.265
972313.63791,3,-0.072,0.469,9.698,4,0.045,0.081,-0.261
972313.63913,3,-0.074,0.460,9.715,4,0.038,0.075,-0.262
972313.64034,3,-0.077,0.462,9.725,4,0.036,0.063,-0.261
972313.64156,3,-0.086,0.457,9.730,4,0.031,0.054,-0.259
972313.64277,3,-0.089,0.445,9.734,4,0.029,0.039,-0.258
972313.64399,3,-0.086,0.431,9.739,4,0.028,0.031,-0.254,5,-9.113,-26.681,12.394
972313.64520,3,-0.081,0.409,9.744,4,0.023,0.020,-0.255
972313.64642,3,-0.074,0.390,9.744
972313.64763,3,-0.065,0.378,9.749,4,0.020,-0.002,-0.251
972313.64885,3,-0.057,0.364,9.761,4,0.018,-0.013,-0.250
972313.65006,3,-0.053,0.340,9.773
972313.65128,3,-0.045,0.316,9.787,4,0.014,-0.034,-0.246
972313.65250,3,-0.043,0.292,9.799
972313.65371,3,-0.029,0.270,9.811,4,0.017,-0.056,-0.247
972313.65493,3,-0.002,0.249,9.821,4,0.014,-0.064,-0.245,5,-9.244,-26.831,12.563
972313.65614,3,0.019,0.232,9.826,4,0.014,-0.074,-0.244
972313.65736,3,0.029,0.206,9.835,4,0.017,-0.081,-0.242
972313.65857,3,0.053,0.182,9.854
972313.65979,3,0.086,0.172,9.878,4,0.018,-0.093,-0.240
972313.66100,3,0.110,0.156,9.895,4,0.019,-0.104,-0.238
972313.66222,3,0.134,0.127,9.914
972313.66343,3,0.165,0.093,9.936,4,0.024,-0.117,-0.238,5,-9.056,-26.906,12.675
972313.66465,3,0.201,0.067,9.957
972313.66586,3,0.227,0.048,9.979,4,0.029,-0.125,-0.238
972313.66708,3,0.249,0.038,9.993,4,0.036,-0.131,-0.239
972313.66829,3,0.275,0.024,10.000,4,0.036,-0.132,-0.236
972313.66951,3,0.295,0.007,10.015
972313.67073,3,0.316,0.000,10.031,4,0.040,-0.132,-0.237
972313.67194,3,0.338,-0.002,10.048,4,0.045,-0.133,-0.235
972313.67316,3,0.362,-0.005,10.065,4,0.046,-0.134,-0.237
972313.67437,3,0.393,-0.017,10.086,4,0.055,-0.134,-0.239,5,-9.244,-27.206,12.450
972313.67559,3,0.424,-0.026,10.105,4,0.056,-0.131,-0.235
972313.67680,3,0.450,-0.024,10.122
972313.67802,3,0.457,-0.017,10.144,4,0.067,-0.125,-0.236
972313.67923,3,0.472,-0.012,10.161,4,0.070,-0.120,-0.237
972313.68045,3,0.491,-0.010,10.175,4,0.071,-0.115,-0.239
972313.68166,3,0.503,0.005,10.177,4,0.077,-0.107,-0.239
972313.68288,3,0.520,0.019,10.170,4,0.084,-0.103,-0.240
972313.68409,3,0.532,0.012,10.165,4,0.086,-0.094,-0.240,5,-9.413,-27.038,12.431
972313.68531,3,0.532,0.010,10.156,4,0.091,-0.087,-0.240
972313.68652,3,0.536,0.007,10.139,4,0.097,-0.076,-0.242
972313.68774,3,0.543,0.010,10.129,4,0.099,-0.062,-0.242
972313.68896,3,0.548,0.019,10.127
972313.69017,3,0.551,0.017,10.134,4,0.110,-0.037,-0.245
972313.69139,3,0.548,0.017,10.137,4,0.116,-0.024,-0.245
972313.69260,3,0.541,0.024,10.137,4,0.118,-0.010,-0.249
972313.69382,3,0.551,0.029,10.144,5,-9.281,-27.019,12.225
972313.69503,3,0.551,0.026,10.151,4,0.125,0.003,-0.253
972313.69625,3,0.546,0.017,10.151,4,0.131,0.027,-0.258
972313.69746,3,0.543,0.017,10.149
972313.69868,3,0.543,0.019,10.149,4,0.133,0.039,-0.258
972313.69989,3,0.551,0.019,10.146,4,0.139,0.064,-0.265
972313.70111,3,0.541,0.017,10.144,4,0.142,0.076,-0.266
972313.70232,3,0.522,0.022,10.134,4,0.144,0.087,-0.269
972313.70354,3,0.508,0.036,10.122,4,0.142,0.098,-0.272
972313.70475,3,0.496,0.045,10.115,4,0.141,0.111,-0.275,5,-9.263,-26.944,12.206
972313.70597,3,0.488,0.045,10.105,4,0.138,0.123,-0.276
972313.70719,3,0.469,0.048,10.079
972313.70840,3,0.453,0.060,10.053,4,0.135,0.145,-0.278
972313.70962,3,0.433,0.077,10.034,4,0.134,0.156,-0.282
972313.71083,3,0.421,0.074,10.007
972313.71205,3,0.419,0.060,9.986,4,0.131,0.167,-0.284
972313.71326,3,0.405,0.050,9.964,4,0.128,0.180,-0.284
972313.71448,3,0.390,0.057,9.933,4,0.117,0.202,-0.287,5,-9.206,-27.113,12.225
972313.71569,3,0.381,0.062,9.900,4,0.110,0.213,-0.286
972313.71691,3,0.357,0.055,9.861,4,0.107,0.229,-0.289
972313.71812,3,0.331,0.062,9.823,4,0.099,0.239,-0.289
972313.71934,3,0.311,0.072,9.799,4,0.092,0.252,-0.289
972313.72055,3,0.299,0.079,9.777,4,0.085,0.260,-0.292
972313.72177,3,0.283,0.084,9.751,4,0.076,0.273,-0.292
972313.72298,3,0.261,0.091,9.727,4,0.067,0.286,-0.294
972313.72420,3,0.239,0.103,9.718,4,0.059,0.296,-0.294,5,-9.075,-27.356,12.506
972313.72541,3,0.225,0.110,9.708,4,0.055,0.308,-0.295
972313.72663,3,0.220,0.124,9.686
972313.72785,3,0.215,0.129,9.667,4,0.034,0.329,-0.298
972313.72906,3,0.201,0.129,9.653,4,0.023,0.337,-0.299
972313.73028,3,0.196,0.139,9.639,4,0.016,0.348,-0.298
972313.73149,3,0.191,0.153,9.627
972313.73271,3,0.177,0.158,9.619,4,-0.003,0.366,-0.298
972313.73392,3,0.167,0.167,9.610,4,-0.013,0.373,-0.302,5,-8.906,-27.131,12.300
972313.73514,3,0.153,0.177,9.607,4,-0.022,0.377,-0.303
972313.73635,3,0.136,0.184,9.605,4,-0.033,0.386,-0.303
972313.73757,3,0.120,0.191,9.612
972313.73878,3,0.093,0.196,9.619,4,-0.047,0.397,-0.302
972313.74000,3,0.077,0.199,9.617,4,-0.057,0.398,-0.303
972313.74121,3,0.057,0.208,9.622
972313.74243,3,0.022,0.218,9.619,4,-0.075,0.406,-0.302
972313.74364,3,-0.007,0.232,9.617,4,-0.082,0.408,-0.302,5,-9.131,-27.150,12.300
972313.74486,3,-0.026,0.249,9.615,4,-0.090,0.409,-0.305
972313.74608,3,-0.048,0.266,9.605,4,-0.097,0.413,-0.300
972313.74729,3,-0.069,0.285,9.600,4,-0.102,0.413,-0.302
972313.74851,3,-0.091,0.297,9.598,4,-0.105,0.410,-0.302
972313.74972,3,-0.110,0.299,9.593
972313.75094,3,-0.129,0.307,9.576,4,-0.123,0.415,-0.301
972313.75215,3,-0.156,0.328,9.572
972313.75337,3,-0.175,0.347,9.572,4,-0.130,0.415,-0.300
972313.75458,3,-0.189,0.359,9.560,4,-0.136,0.416,-0.299,5,-9.019,-27.094,12.150
972313.75580,3,-0.196,0.364,9.543
972313.75701,3,-0.191,0.357,9.529,4,-0.140,0.412,-0.298
972313.75823,3,-0.196,0.364,9.517,4,-0.142,0.410,-0.297
972313.75944,3,-0.203,0.376,9.502,4,-0.146,0.408,-0.294
972313.76066,3,-0.208,0.390,9.490,4,-0.144,0.406,-0.294
972313.76187,3,-0.225,0.409,9.471
972313.76309,3,-0.234,0.412,9.450,4,-0.143,0.397,-0.292
972313.76431,3,-0.237,0.417,9.426,4,-0.145,0.394,-0.292,5,-8.925,-27.225,12.038
972313.76552,3,-0.234,0.426,9.411,4,-0.145,0.393,-0.291
972313.76674,3,-0.234,0.429,9.406,4,-0.141,0.384,-0.288
972313.76795,3,-0.244,0.441,9.392,4,-0.140,0.377,-0.288
972313.76917,3,-0.263,0.453,9.375
972313.77038,3,-0.283,0.460,9.359,4,-0.135,0.366,-0.287
972313.77160,3,-0.292,0.462,9.344,4,-0.132,0.358,-0.286
972313.77281,3,-0.295,0.460,9.332,4,-0.127,0.349,-0.285
972313.77403,3,-0.295,0.467,9.325,4,-0.121,0.338,-0.284,5,-9.019,-27.394,12.338
972313.77524,3,-0.292,0.488,9.301,4,-0.116,0.335,-0.285
972313.77646,3,-0.290,0.505,9.270,4,-0.110,0.324,-0.281
972313.77767,3,-0.285,0.512,9.241,4,-0.105,0.317,-0.282
972313.77889,3,-0.292,0.515,9.212,4,-0.096,0.307,-0.281
972313.78010,3,-0.299,0.517,9.184
972313.78132,3,-0.292,0.527,9.153,4,-0.082,0.293,-0.281
972313.78253,3,-0.283,0.532,9.112,4,-0.077,0.284,-0.278
972313.78375,3,-0.278,0.532,9.074,5,-9.131,-27.525,12.413
972313.78497,3,-0.285,0.539,9.038,4,-0.066,0.278,-0.278
972313.78618,3,-0.290,0.546,9.014,4,-0.060,0.271,-0.277
972313.78740,3,-0.278,0.551,8.997,4,-0.043,0.257,-0.275
972313.78861,3,-0.270,0.553,8.966,4,-0.037,0.249,-0.275
972313.78983,3,-0.263,0.560,8.935,4,-0.027,0.242,-0.273
972313.79104,3,-0.258,0.575,8.906,4,-0.019,0.235,-0.271
972313.79226,3,-0.244,0.584,8.868
972313.79347,3,-0.234,0.589,8.834,4,-0.013,0.230,-0.272,5,-9.019,-27.488,12.338
972313.79469,3,-0.232,0.591,8.801,4,0.001,0.225,-0.270
972313.79590,3,-0.223,0.596,8.760,4,0.017,0.214,-0.269
972313.79712,3,-0.203,0.601,8.729
972313.79833,3,-0.189,0.603,8.695,4,0.029,0.207,-0.265
972313.79955,3,-0.177,0.606,8.652,4,0.041,0.195,-0.267
972313.80076,3,-0.160,0.613,8.619
972313.80198,3,-0.153,0.615,8.597,4,0.062,0.184,-0.265
972313.80320,3,-0.148,0.622,8.573,4,0.067,0.179,-0.263
972313.80441,3,-0.136,0.639,8.542,4,0.077,0.176,-0.264,5,-8.850,-27.431,12.075
972313.80563,3,-0.117,0.637,8.525,4,0.082,0.171,-0.261
972313.80684,3,-0.108,0.639,8.509,4,0.092,0.164,-0.258
972313.80806,3,-0.096,0.658,8.475,4,0.097,0.158,-0.259
972313.80927,3,-0.079,0.670,8.437,4,0.103,0.153,-0.257
972313.81049,3,-0.077,0.680,8.410,4,0.111,0.145,-0.254
972313.81170,3,-0.074,0.685,8.387,4,0.117,0.144,-0.254
972313.81292,3,-0.074,0.687,8.358,4,0.122,0.137,-0.252
972313.81413,3,-0.077,0.701,8.332,5,-8.644,-27.450,12.338
972313.81535,3,-0.069,0.721,8.312,4,0.132,0.130,-0.247
972313.81656,3,-0.060,0.740,8.288
972313.81778,3,-0.065,0.759,8.269,4,0.143,0.119,-0.241
972313.81899,3,-0.074,0.766,8.255,4,0.147,0.114,-0.238
972313.82021,3,-0.074,0.756,8.236,4,0.151,0.108,-0.231
972313.82143,3,-0.074,0.764,8.217,4,0.156,0.106,-0.230
972313.82264,3,-0.079,0.785,8.198
972313.82386,3,-0.081,0.790,8.183,4,0.162,0.098,-0.220,5,-8.644,-27.338,12.244
972313.82507,3,-0.089,0.790,8.181,4,0.161,0.095,-0.219
972313.82629,3,-0.103,0.790,8.178,4,0.165,0.090,-0.214
972313.82750,3,-0.110,0.792,8.176,4,0.168,0.086,-0.207
972313.82872,3,-0.112,0.797,8.174,4,0.167,0.084,-0.203
972313.82993,3,-0.120,0.807,8.176,4,0.167,0.079,-0.198
972313.83115,3,-0.117,0.814,8.181,4,0.168,0.075,-0.192
972313.83236,3,-0.115,0.823,8.183,4,0.170,0.071,-0.189
972313.83358,3,-0.117,0.838,8.183,4,0.167,0.067,-0.181,5,-8.663,-27.394,12.488
972313.83479,3,-0.112,0.850,8.178
972313.83601,3,-0.105,0.855,8.176,4,0.170,0.061,-0.173
972313.83722,3,-0.110,0.855,8.181,4,0.168,0.059,-0.164
972313.83844,3,-0.120,0.843,8.186
972313.83966,3,-0.127,0.828,8.181,4,0.161,0.052,-0.157
972313.84087,3,-0.122,0.835,8.186,4,0.155,0.049,-0.152
972313.84209,3,-0.120,0.848,8.190,4,0.157,0.042,-0.148
972313.84330,3,-0.129,0.857,8.188
972313.84452,3,-0.132,0.862,8.190,4,0.150,0.043,-0.142,5,-8.419,-27.506,12.506
972313.84573,3,-0.136,0.860,8.198,4,0.144,0.039,-0.129
972313.84695,3,-0.144,0.867,8.207
972313.84816,3,-0.134,0.879,8.214,4,0.136,0.034,-0.118
972313.84938,3,-0.132,0.876,8.226,4,0.131,0.029,-0.113
972313.85059,3,-0.139,0.867,8.243,4,0.124,0.030,-0.109
972313.85181,3,-0.144,0.872,8.255,4,0.116,0.030,-0.101
972313.85302,3,-0.151,0.876,8.276
972313.85424,3,-0.153,0.879,8.305,4,0.103,0.024,-0.091,5,-8.288,-27.413,12.356
972313.85545,3,-0.146,0.876,8.327,4,0.098,0.022,-0.087
972313.85667,3,-0.141,0.869,8.339,4,0.091,0.021,-0.083
972313.85788,3,-0.153,0.867,8.358,4,0.085,0.017,-0.077
972313.85910,3,-0.156,0.855,8.375
972313.86032,3,-0.146,0.845,8.396,4,0.069,0.015,-0.069
972313.86153,3,-0.136,0.848,8.430,4,0.062,0.011,-0.063
972313.86275,3,-0.134,0.845,8.454,4,0.053,0.010,-0.058
972313.86396,3,-0.141,0.840,8.475,4,0.042,0.008,-0.054,5,-8.044,-27.375,12.225
972313.86518,3,-0.136,0.833,8.513
972313.86639,3,-0.136,0.826,8.540,4,0.024,0.004,-0.046
972313.86761,3,-0.148,0.831,8.559,4,0.016,0.006,-0.042
972313.86882,3,-0.160,0.838,8.592,4,0.006,0.004,-0.038
972313.87004,3,-0.165,0.840,8.623,4,0.001,0.001,-0.036
972313.87125,3,-0.158,0.843,8.645
972313.87247,3,-0.153,0.838,8.676,4,-0.021,-0.002,-0.030
972313.87368,3,-0.158,0.835,8.712,4,-0.024,-0.002,-0.026
972313.87490,3,-0.153,0.835,8.743,4,-0.032,-0.006,-0.023,5,-8.119,-27.375,12.638
972313.87611,3,-0.141,0.833,8.770,4,-0.041,-0.005,-0.017
972313.87733,3,-0.144,0.838,8.801
972313.87855,3,-0.156,0.848,8.844,4,-0.054,-0.009,-0.012
972313.87976,3,-0.163,0.843,8.880,4,-0.061,-0.012,-0.008
972313.88098,3,-0.179,0.843,8.904,4,-0.066,-0.012,-0.005
972313.88219,3,-0.184,0.855,8.928,4,-0.073,-0.012,-0.002
972313.88341,3,-0.184,0.852,8.956
972313.88462,3,-0.191,0.840,8.992,4,-0.084,-0.018,0.005,5,-8.063,-27.450,12.731
972313.88584,3,-0.194,0.840,9.019,4,-0.089,-0.021,0.009
972313.88705,3,-0.191,0.855,9.045,4,-0.093,-0.022,0.012
972313.88827,3,-0.194,0.867,9.074
972313.88948,3,-0.194,0.872,9.102,4,-0.102,-0.024,0.014
972313.89070,3,-0.191,0.884,9.138,4,-0.111,-0.030,0.025
972313.89191,3,-0.196,0.903,9.169,4,-0.112,-0.034,0.028
972313.89313,3,-0.201,0.912,9.191
972313.89434,3,-0.196,0.905,9.220,4,-0.117,-0.039,0.031,5,-8.100,-27.469,12.638
972313.89556,3,-0.194,0.898,9.246,4,-0.117,-0.041,0.036
972313.89678,3,-0.177,0.903,9.275,4,-0.126,-0.052,0.046
972313.89799,3,-0.151,0.910,9.316
972313.89921,3,-0.139,0.912,9.349,4,-0.124,-0.054,0.049
972313.90042,3,-0.144,0.922,9.375,4,-0.125,-0.061,0.056
972313.90164,3,-0.151,0.939,9.409
972313.90285,3,-0.156,0.939,9.438,4,-0.122,-0.075,0.066
972313.90407,3,-0.151,0.931,9.464,4,-0.124,-0.076,0.070,5,-7.800,-27.413,12.506
972313.90528,3,-0.129,0.931,9.497,4,-0.123,-0.082,0.074
972313.90650,3,-0.108,0.934,9.521,4,-0.121,-0.088,0.077
972313.90771,3,-0.089,0.929,9.538
972313.90893,3,-0.067,0.919,9.555,4,-0.118,-0.095,0.082
972313.91014,3,-0.050,0.917,9.567,4,-0.114,-0.097,0.083
972313.91136,3,-0.043,0.915,9.586,4,-0.109,-0.106,0.088
972313.91257,3,-0.031,0.910,9.605,4,-0.107,-0.107,0.090
972313.91379,3,-0.005,0.912,9.634,4,-0.104,-0.112,0.093,5,-7.725,-27.619,12.431
972313.91500,3,0.012,0.922,9.653,4,-0.098,-0.118,0.096
972313.91622,3,0.029,0.922,9.663,4,-0.089,-0.123,0.098
972313.91744,3,0.050,0.927,9.672
972313.91865,3,0.069,0.934,9.694,4,-0.088,-0.126,0.100
972313.91987,3,0.086,0.931,9.713,4,-0.073,-0.137,0.105
972313.92108,3,0.103,0.936,9.722,4,-0.069,-0.137,0.105
972313.92230,3,0.129,0.936,9.722,4,-0.061,-0.142,0.107
972313.92351,3,0.136,0.934,9.722,4,-0.056,-0.147,0.108
972313.92473,3,0.139,0.934,9.730,4,-0.052,-0.149,0.110,5,-7.688,-27.431,12.431
972313.92594,3,0.156,0.934,9.739,4,-0.043,-0.155,0.111
972313.92716,3,0.170,0.934,9.744,4,-0.037,-0.156,0.113
972313.92837,3,0.179,0.948,9.741,4,-0.026,-0.159,0.113
972313.92959,3,0.187,0.963,9.737,4,-0.020,-0.164,0.115
972313.93080,3,0.194,0.977,9.734,4,-0.015,-0.164,0.116
972313.93202,3,0.201,0.989,9.727,4,-0.005,-0.170,0.115
972313.93323,3,0.213,0.986,9.715,4,-0.000,-0.171,0.117
972313.93445,3,0.220,0.989,9.710,4,0.005,-0.172,0.119,5,-7.781,-27.394,12.581
972313.93567,3,0.213,1.001,9.698,4,0.010,-0.172,0.117
972313.93688,3,0.223,1.018,9.684,4,0.021,-0.176,0.118
972313.93810,3,0.242,1.034,9.670,4,0.024,-0.175,0.118
972313.93931,3,0.244,1.051,9.665,4,0.030,-0.177,0.118
972313.94053,3,0.244,1.073,9.663,4,0.034,-0.180,0.120
972313.94174,3,0.246,1.092,9.648,4,0.041,-0.175,0.119
972313.94296,3,0.254,1.099,9.634,4,0.047,-0.180,0.120
972313.94417,3,0.268,1.108,9.622,4,0.050,-0.178,0.121,5,-7.969,-27.319,12.600
972313.94539,3,0.280,1.120,9.619,4,0.053,-0.176,0.120
972313.94660,3,0.287,1.123,9.610
972313.94782,3,0.297,1.130,9.598,4,0.061,-0.173,0.123
972313.94903,3,0.304,1.154,9.586,4,0.063,-0.173,0.121
972313.95025,3,0.307,1.171,9.579
972313.95146,3,0.314,1.175,9.574,4,0.070,-0.173,0.121
972313.95268,3,0.333,1.187,9.564
972313.95390,3,0.347,1.202,9.557,4,0.074,-0.171,0.123,5,-8.044,-27.469,12.394
972313.95511,3,0.352,1.209,9.548,4,0.076,-0.171,0.122
972313.95633,3,0.357,1.211,9.543
972313.95754,3,0.359,1.207,9.524,4,0.075,-0.169,0.119
972313.95876,3,0.366,1.219,9.500,4,0.079,-0.170,0.119
972313.95997,3,0.381,1.242,9.490,4,0.077,-0.166,0.119
972313.96119,3,0.383,1.250,9.481,4,0.077,-0.166,0.118
972313.96240,3,0.383,1.257,9.469,4,0.077,-0.165,0.116
972313.96362,3,0.388,1.269,9.454,4,0.077,-0.163,0.116,5,-8.194,-27.375,12.319
972313.96483,3,0.395,1.278,9.438,4,0.077,-0.162,0.116
972313.96605,3,0.419,1.281,9.430,4,0.075,-0.159,0.114
972313.96726,3,0.426,1.288,9.423,4,0.075,-0.157,0.111
972313.96848,3,0.426,1.309,9.418
972313.96969,3,0.438,1.329,9.416,4,0.070,-0.154,0.111
972313.97091,3,0.443,1.338,9.414,4,0.068,-0.149,0.111
972313.97212,3,0.443,1.345,9.414,4,0.070,-0.148,0.111
972313.97334,3,0.438,1.357,9.414,4,0.067,-0.143,0.111
972313.97456,3,0.441,1.365,9.411,4,0.063,-0.139,0.110,5,-8.344,-27.638,12.544
972313.97577,3,0.448,1.374,9.411,4,0.061,-0.136,0.109
972313.97699,3,0.453,1.403,9.421
972313.97820,3,0.465,1.422,9.418,4,0.058,-0.131,0.113
972313.97942,3,0.472,1.429,9.414,4,0.055,-0.129,0.112
972313.98063,3,0.479,1.449,9.423
972313.98185,3,0.488,1.463,9.430,4,0.050,-0.120,0.116
972313.98306,3,0.505,1.477,9.433,4,0.048,-0.116,0.115
972313.98428,3,0.510,1.501,9.435,5,-8.419,-27.788,12.694
972313.98549,3,0.508,1.520,9.435,4,0.047,-0.112,0.118
972313.98671,3,0.510,1.539,9.435
972313.98792,3,0.512,1.559,9.428,4,0.039,-0.102,0.122
972313.98914,3,0.517,1.571,9.416
972313.99035,3,0.529,1.583,9.409,4,0.036,-0.092,0.129
972313.99157,3,0.534,1.597,9.397,4,0.035,-0.088,0.131
972313.99279,3,0.532,1.618,9.380
972313.99400,3,0.539,1.640,9.366,4,0.031,-0.074,0.136,5,-8.269,-27.619,12.788
972313.99522,3,0.541,1.662,9.354,4,0.030,-0.068,0.141
972313.99643,3,0.553,1.673,9.337,4,0.026,-0.062,0.146
972313.99765,3,0.555,1.690,9.323,4,0.026,-0.055,0.150
972313.99886,3,0.546,1.707,9.318
972314.00008,3,0.543,1.717,9.308,4,0.020,-0.038,0.156
972314.00129,3,0.541,1.726,9.296,4,0.022,-0.029,0.160
972314.00251,3,0.539,1.740,9.272,4,0.021,-0.025,0.166
972314.00372,3,0.536,1.760,9.248,4,0.019,-0.015,0.168
972314.00494,3,0.524,1.769,9.229,5,-8.531,-27.544,12.975
972314.00615,3,0.508,1.764,9.210,4,0.016,0.000,0.179
972314.00737,3,0.505,1.757,9.193,4,0.017,0.005,0.185
972314.00858,3,0.500,1.764,9.174,4,0.017,0.014,0.191
972314.00980,3,0.491,1.779,9.157,4,0.017,0.023,0.195
972314.01102,3,0.491,1.779,9.153
972314.01223,3,0.484,1.781,9.141,4,0.013,0.032,0.204
972314.01345,3,0.467,1.784,9.124,4,0.016,0.040,0.210,5,-8.419,-27.450,12.675
972314.01466,3,0.460,1.784,9.105
972314.01588,3,0.450,1.781,9.095,4,0.017,0.047,0.220
972314.01709,3,0.438,1.793,9.086,4,0.017,0.051,0.227
972314.01831,3,0.421,1.807,9.076,4,0.016,0.057,0.231
972314.01952,3,0.398,1.803,9.074,4,0.020,0.062,0.237
972314.02074,3,0.386,1.803,9.066,4,0.019,0.067,0.241
972314.02195,3,0.366,1.805,9.059,4,0.020,0.070,0.246
972314.02317,3,0.335,1.810,9.059,4,0.022,0.073,0.254
972314.02438,3,0.314,1.817,9.066,4,0.019,0.079,0.255,5,-8.381,-27.300,12.919
972314.02560,3,0.295,1.819,9.062,4,0.021,0.080,0.261
972314.02681,3,0.287,1.824,9.069,4,0.022,0.082,0.265
972314.02803,3,0.278,1.829,9.083,4,0.023,0.086,0.268
972314.02925,3,0.258,1.831,9.100
972314.03046,3,0.249,1.831,9.112,4,0.025,0.092,0.276
972314.03168,3,0.242,1.831,9.114,4,0.025,0.092,0.277
972314.03289,3,0.223,1.831,9.124,4,0.026,0.095,0.280
972314.03411,3,0.206,1.831,9.145,4,0.027,0.095,0.283,5,-8.400,-27.431,13.031
972314.03532,3,0.187,1.846,9.167,4,0.026,0.100,0.286
972314.03654,3,0.167,1.865,9.191,4,0.030,0.100,0.287
972314.03775,3,0.146,1.872,9.205,4,0.025,0.100,0.289
972314.03897,3,0.120,1.877,9.220,4,0.026,0.100,0.289
972314.04018,3,0.103,1.894,9.243,4,0.028,0.103,0.288
972314.04140,3,0.086,1.918,9.270
972314.04261,3,0.065,1.934,9.294,4,0.025,0.106,0.289
972314.04383,3,0.036,1.939,9.311,4,0.020,0.106,0.289,5,-8.381,-27.244,13.050
972314.04504,3,0.010,1.944,9.328
972314.04626,3,-0.010,1.958,9.349,4,0.022,0.109,0.289
972314.04747,3,-0.029,1.973,9.373
972314.04869,3,-0.050,1.973,9.399,4,0.020,0.114,0.291
972314.04991,3,-0.077,1.978,9.428,4,0.022,0.114,0.286
972314.05112,3,-0.096,1.990,9.454
972314.05234,3,-0.110,2.004,9.481,4,0.018,0.116,0.284
972314.05355,3,-0.129,2.016,9.509
972314.05477,3,-0.156,2.028,9.536,4,0.016,0.120,0.283,5,-8.644,-27.019,12.806
972314.05598,3,-0.182,2.037,9.560,4,0.016,0.120,0.283
972314.05720,3,-0.191,2.049,9.593,4,0.014,0.119,0.282
972314.05841,3,-0.208,2.059,9.636,4,0.016,0.120,0.280
972314.05963,3,-0.232,2.064,9.665
972314.06084,3,-0.258,2.066,9.677,4,0.016,0.119,0.279
972314.06206,3,-0.287,2.069,9.689,4,0.014,0.118,0.278
972314.06327,3,-0.316,2.064,9.696,4,0.015,0.118,0.278
972314.06449,3,-0.342,2.059,9.703,4,0.016,0.119,0.276,5,-8.906,-26.888,12.806
972314.06570,3,-0.369,2.059,9.718,4,0.016,0.117,0.279
972314.06692,3,-0.383,2.057,9.727
972314.06814,3,-0.388,2.052,9.732,4,0.013,0.122,0.274
972314.06935,3,-0.393,2.047,9.746,4,0.016,0.122,0.278
972314.07057,3,-0.405,2.037,9.758,4,0.017,0.123,0.276
972314.07178,3,-0.421,2.023,9.761
972314.07300,3,-0.431,2.006,9.765,4,0.016,0.127,0.278
972314.07421,3,-0.433,1.994,9.787,4,0.018,0.129,0.275,5,-9.244,-26.869,12.806
972314.07543,3,-0.433,1.987,9.808,4,0.018,0.133,0.276
972314.07664,3,-0.438,1.985,9.823,4,0.017,0.137,0.278
972314.07786,3,-0.450,1.975,9.835,4,0.019,0.137,0.274
972314.07907,3,-0.448,1.958,9.849,4,0.021,0.136,0.275
972314.08029,3,-0.433,1.944,9.864,4,0.023,0.139,0.276
972314.08150,3,-0.417,1.932,9.883,4,0.022,0.136,0.278
972314.08272,3,-0.407,1.920,9.907,4,0.021,0.139,0.278
972314.08393,3,-0.407,1.913,9.926,5,-9.319,-26.813,12.713
972314.08515,3,-0.405,1.898,9.945,4,0.026,0.135,0.278
972314.08637,3,-0.390,1.884,9.967,4,0.023,0.130,0.281
972314.08758,3,-0.383,1.872,9.986,4,0.025,0.128,0.279
972314.08880,3,-0.374,1.860,9.995,4,0.028,0.125,0.278
972314.09001,3,-0.357,1.855,10.007,4,0.026,0.119,0.281
972314.09123,3,-0.338,1.851,10.022,4,0.028,0.116,0.281
972314.09244,3,-0.326,1.841,10.043,4,0.031,0.109,0.279
972314.09366,3,-0.314,1.836,10.058,4,0.033,0.103,0.281,5,-9.488,-27.075,12.919
972314.09487,3,-0.299,1.824,10.072
972314.09609,3,-0.283,1.810,10.091,4,0.034,0.100,0.279
972314.09730,3,-0.268,1.805,10.089,4,0.042,0.087,0.280
972314.09852,3,-0.258,1.812,10.086,4,0.042,0.083,0.277
972314.09973,3,-0.263,1.810,10.082,4,0.047,0.078,0.279
972314.10095,3,-0.261,1.798,10.096,4,0.051,0.069,0.277
972314.10216,3,-0.249,1.791,10.120
972314.10338,3,-0.232,1.779,10.139,4,0.058,0.060,0.277
972314.10459,3,-0.215,1.781,10.165,4,0.063,0.053,0.275,5,-9.413,-26.981,12.919
972314.10581,3,-0.206,1.781,10.196,4,0.068,0.042,0.274
972314.10703,3,-0.191,1.779,10.216,4,0.073,0.036,0.276
972314.10824,3,-0.182,1.779,10.223,4,0.076,0.022,0.273
972314.10946,3,-0.189,1.779,10.230,4,0.083,0.017,0.274
972314.11067,3,-0.189,1.776,10.239,4,0.089,0.007,0.273
972314.11189,3,-0.182,1.769,10.237,4,0.097,-0.002,0.271
972314.11310,3,-0.177,1.757,10.235,4,0.099,-0.009,0.270
972314.11432,3,-0.177,1.750,10.230,4,0.106,-0.018,0.270,5,-9.506,-27.094,12.881
972314.11553,3,-0.187,1.755,10.216,4,0.113,-0.024,0.268
972314.11675,3,-0.194,1.772,10.199,4,0.117,-0.034,0.272
972314.11796,3,-0.182,1.781,10.172,4,0.125,-0.038,0.269
972314.11918,3,-0.172,1.769,10.144
972314.12039,3,-0.182,1.755,10.125,4,0.132,-0.048,0.269
972314.12161,3,-0.191,1.748,10.098,4,0.141,-0.058,0.270
972314.12282,3,-0.194,1.748,10.067,4,0.149,-0.068,0.268
972314.12404,3,-0.194,1.745,10.038,4,0.154,-0.071,0.270,5,-9.544,-27.150,13.050
972314.12526,3,-0.194,1.740,10.005,4,0.161,-0.079,0.270
972314.12647,3,-0.182,1.736,9.974,4,0.168,-0.084,0.267
972314.12769,3,-0.165,1.729,9.955,4,0.172,-0.088,0.270
972314.12890,3,-0.158,1.717,9.938,4,0.181,-0.093,0.269
972314.13012,3,-0.156,1.697,9.914,4,0.185,-0.098,0.266
972314.13133,3,-0.153,1.676,9.890,4,0.189,-0.107,0.267
972314.13255,3,-0.148,1.659,9.873,4,0.195,-0.112,0.265
972314.13376,3,-0.136,1.638,9.864,4,0.201,-0.119,0.265,5,-9.356,-27.263,13.125
972314.13498,3,-0.122,1.611,9.849,4,0.207,-0.126,0.264
972314.13619,3,-0.115,1.587,9.840,4,0.209,-0.132,0.263
972314.13741,3,-0.112,1.554,9.830,4,0.211,-0.138,0.259
972314.13862,3,-0.105,1.520,9.821,4,0.213,-0.144,0.259
972314.13984,3,-0.100,1.492,9.821,4,0.217,-0.153,0.254
972314.14105,3,-0.098,1.470,9.818,4,0.221,-0.160,0.251
972314.14227,3,-0.081,1.451,9.818,4,0.223,-0.165,0.250
972314.14349,3,-0.057,1.427,9.826,4,0.223,-0.174,0.245,5,-9.431,-27.413,13.144
972314.14470,3,-0.038,1.400,9.833
972314.14592,3,-0.031,1.374,9.840,4,0.224,-0.189,0.242
972314.14713,3,-0.026,1.350,9.845,4,0.223,-0.193,0.235
972314.14835,3,-0.017,1.321,9.847,4,0.220,-0.201,0.233
972314.14956,3,0.005,1.288,9.857,4,0.220,-0.202,0.230
972314.15078,3,0.024,1.259,9.878,4,0.215,-0.208,0.226
972314.15199,3,0.031,1.233,9.907,4,0.212,-0.212,0.221
972314.15321,3,0.038,1.195,9.933,4,0.209,-0.217,0.221
972314.15442,3,0.053,1.168,9.960,4,0.202,-0.216,0.213,5,-9.450,-27.300,13.069
972314.15564,3,0.060,1.149,9.991,4,0.197,-0.217,0.210
972314.15685,3,0.065,1.118,10.027,4,0.194,-0.220,0.207
972314.15807,3,0.069,1.089,10.070,4,0.182,-0.217,0.202
972314.15928,3,0.072,1.063,10.115,4,0.176,-0.216,0.198
972314.16050,3,0.079,1.039,10.168,4,0.165,-0.213,0.193
972314.16172,3,0.096,1.022,10.218,4,0.157,-0.211,0.190
972314.16293,3,0.100,1.015,10.271,4,0.149,-0.210,0.186
972314.16415,3,0.098,1.001,10.326,4,0.140,-0.206,0.179,5,-9.338,-27.450,13.256
972314.16536,3,0.103,0.967,10.376,4,0.126,-0.199,0.176
972314.16658,3,0.108,0.943,10.431,4,0.115,-0.197,0.174
972314.16779,3,0.115,0.922,10.493,4,0.103,-0.187,0.166
972314.16901,3,0.120,0.893,10.556
972314.17022,3,0.112,0.864,10.613,4,0.081,-0.177,0.157
972314.17144,3,0.098,0.843,10.670,4,0.069,-0.169,0.152
972314.17265,3,0.093,0.814,10.728
972314.17387,3,0.089,0.792,10.778,4,0.038,-0.154,0.143,5,-9.469,-27.413,13.181
972314.17508,3,0.077,0.778,10.833,4,0.025,-0.145,0.140
972314.17630,3,0.074,0.756,10.888,4,0.011,-0.137,0.137
972314.17751,3,0.086,0.735,10.938,4,-0.004,-0.130,0.133
972314.17873,3,0.084,0.723,10.996,4,-0.024,-0.115,0.129
972314.17994,3,0.077,0.716,11.044,4,-0.038,-0.110,0.126
972314.18116,3,0.067,0.701,11.090,4,-0.051,-0.099,0.122
972314.18238,3,0.053,0.692,11.154,4,-0.069,-0.090,0.119
972314.18359,3,0.033,0.675,11.212,4,-0.084,-0.079,0.111
972314.18481,3,0.010,0.651,11.267,4,-0.101,-0.070,0.110,5,-9.544,-27.713,13.031
972314.18602,3,-0.014,0.639,11.314,4,-0.118,-0.060,0.106
972314.18724,3,-0.031,0.618,11.350
972314.18845,3,-0.029,0.601,11.381,4,-0.148,-0.042,0.096
972314.18967,3,-0.029,0.591,11.410,4,-0.163,-0.030,0.093
972314.19088,3,-0.033,0.579,11.439,4,-0.176,-0.022,0.089
972314.19210,3,-0.038,0.570,11.468,4,-0.190,-0.013,0.088
972314.19331,3,-0.048,0.560,11.499
972314.19453,3,-0.050,0.551,11.523,4,-0.218,0.010,0.078,5,-9.619,-27.506,13.050
972314.19574,3,-0.045,0.529,11.540,4,-0.235,0.019,0.075
972314.19696,3,-0.050,0.510,11.561,4,-0.248,0.033,0.067
972314.19817,3,-0.053,0.508,11.573
972314.19939,3,-0.043,0.500,11.576,4,-0.261,0.045,0.064
972314.20061,3,-0.041,0.481,11.585,4,-0.283,0.065,0.055
972314.20182,3,-0.045,0.462,11.595,4,-0.293,0.079,0.052
972314.20304,3,-0.053,0.448,11.609
972314.20425,3,-0.043,0.431,11.619,4,-0.304,0.091,0.046,5,-9.694,-27.563,12.975
972314.20547,3,-0.029,0.405,11.621,4,-0.316,0.101,0.039
972314.20668,3,-0.029,0.386,11.628,4,-0.333,0.119,0.031
972314.20790,3,-0.024,0.371,11.638,4,-0.339,0.132,0.025
972314.20911,3,-0.010,0.347,11.652,4,-0.347,0.139,0.019
972314.21033,3,0.002,0.321,11.664,4,-0.352,0.145,0.016
972314.21154,3,0.014,0.307,11.674
972314.21276,3,0.007,0.290,11.688,4,-0.360,0.161,0.005
972314.21397,3,0.002,0.268,11.693,4,-0.366,0.164,0.001,5,-9.713,-27.638,12.956
972314.21519,3,0.010,0.230,11.695,4,-0.371,0.172,-0.007
972314.21640,3,0.010,0.196,11.705
972314.21762,3,0.012,0.184,11.714,4,-0.372,0.175,-0.013
972314.21884,3,0.017,0.187,11.729,4,-0.375,0.180,-0.024
972314.22005,3,0.024,0.175,11.748,4,-0.378,0.185,-0.027
972314.22127,3,0.019,0.148,11.769,4,-0.377,0.186,-0.032
972314.22248,3,0.014,0.132,11.784,4,-0.372,0.188,-0.037
972314.22370,3,0.012,0.115,11.786,5,-9.675,-27.375,12.844
972314.22491,3,0.010,0.105,11.793,4,-0.366,0.189,-0.047
972314.22613,3,0.012,0.091,11.805,4,-0.363,0.190,-0.050
972314.22734,3,0.002,0.074,11.827,4,-0.358,0.192,-0.055
972314.22856,3,-0.012,0.065,11.841,4,-0.352,0.192,-0.058
972314.22977,3,-0.012,0.053,11.856,4,-0.344,0.191,-0.063
972314.23099,3,0.005,0.043,11.877,4,-0.338,0.192,-0.064
972314.23220,3,0.000,0.043,11.891,4,-0.330,0.189,-0.067
972314.23342,3,-0.017,0.045,11.896,4,-0.317,0.183,-0.069
972314.23463,3,-0.022,0.048,11.908,4,-0.308,0.181,-0.069,5,-9.506,-27.413,12.900
972314.23585,3,-0.024,0.041,11.923,4,-0.299,0.176,-0.074
972314.23706,3,-0.029,0.029,11.927,4,-0.287,0.174,-0.074
972314.23828,3,-0.050,0.024,11.930,4,-0.276,0.168,-0.074
972314.23950,3,-0.067,0.019,11.944,4,-0.265,0.163,-0.077
972314.24071,3,-0.057,0.007,11.954,4,-0.251,0.158,-0.075
972314.24193,3,-0.050,-0.005,11.944
972314.24314,3,-0.057,-0.012,11.932,4,-0.223,0.144,-0.076
972314.24436,3,-0.062,-0.010,11.925,4,-0.208,0.136,-0.074,5,-9.769,-27.356,12.488
972314.24557,3,-0.062,-0.010,11.913,4,-0.191,0.131,-0.076
972314.24679,3,-0.065,-0.017,11.896
972314.24800,3,-0.072,-0.022,11.879,4,-0.176,0.127,-0.077
972314.24922,3,-0.081,-0.024,11.858,4,-0.144,0.114,-0.075
972314.25043,3,-0.096,-0.024,11.836,4,-0.127,0.106,-0.074
972314.25165,3,-0.096,-0.019,11.815,4,-0.108,0.102,-0.072
972314.25286,3,-0.100,-0.012,11.789
972314.25408,3,-0.108,-0.014,11.757,4,-0.070,0.087,-0.071,5,-9.731,-27.038,12.488
972314.25529,3,-0.108,-0.024,11.717,4,-0.052,0.084,-0.069
972314.25651,3,-0.110,-0.036,11.674,4,-0.031,0.079,-0.068
972314.25773,3,-0.117,-0.041,11.635,4,-0.011,0.073,-0.069
972314.25894,3,-0.129,-0.038,11.597,4,0.010,0.070,-0.068
972314.26016,3,-0.129,-0.041,11.554,4,0.032,0.064,-0.069
972314.26137,3,-0.117,-0.050,11.499,4,0.050,0.060,-0.068
972314.26259,3,-0.112,-0.062,11.436,4,0.069,0.057,-0.070
972314.26380,3,-0.108,-0.062,11.377,5,-9.825,-26.888,12.581
972314.26502,3,-0.105,-0.055,11.319,4,0.116,0.048,-0.069
972314.26623,3,-0.098,-0.060,11.250
972314.26745,3,-0.089,-0.069,11.166,4,0.140,0.044,-0.070
972314.26866,3,-0.086,-0.072,11.092,4,0.184,0.037,-0.071
972314.26988,3,-0.077,-0.084,11.015,4,0.207,0.036,-0.075
972314.27109,3,-0.060,-0.096,10.934,4,0.226,0.032,-0.076
972314.27231,3,-0.048,-0.096,10.862,4,0.248,0.032,-0.077
972314.27352,3,-0.038,-0.105,10.788,4,0.270,0.029,-0.080
972314.27474,3,-0.026,-0.117,10.711,4,0.292,0.028,-0.082,5,-9.788,-26.831,12.263
972314.27596,3,-0.029,-0.124,10.639,4,0.316,0.027,-0.085
972314.27717,3,-0.031,-0.129,10.560,4,0.336,0.027,-0.089
972314.27839,3,-0.024,-0.141,10.474
972314.27960,3,-0.017,-0.160,10.391,4,0.376,0.023,-0.094
972314.28082,3,-0.002,-0.172,10.304,4,0.397,0.021,-0.098
972314.28203,3,-0.005,-0.182,10.216,4,0.413,0.023,-0.101
972314.28325,3,-0.012,-0.194,10.137,4,0.429,0.023,-0.107
972314.28446,3,-0.007,-0.201,10.058,5,-9.975,-26.925,12.319
972314.28568,3,-0.014,-0.199,9.979,4,0.465,0.020,-0.111
972314.28689,3,-0.031,-0.194,9.902,4,0.479,0.023,-0.118
972314.28811,3,-0.043,-0.199,9.826,4,0.494,0.022,-0.125
972314.28932,3,-0.038,-0.206,9.744
972314.29054,3,-0.036,-0.220,9.665,4,0.518,0.026,-0.132
972314.29175,3,-0.041,-0.237,9.600,4,0.528,0.028,-0.135
972314.29297,3,-0.048,-0.239,9.538,4,0.535,0.034,-0.140
972314.29418,3,-0.062,-0.230,9.464,4,0.543,0.032,-0.146,5,-10.031,-26.925,12.394
972314.29540,3,-0.072,-0.232,9.397,4,0.554,0.036,-0.149
972314.29662,3,-0.077,-0.239,9.344,4,0.560,0.037,-0.154
972314.29783,3,-0.081,-0.246,9.292,4,0.561,0.042,-0.159
972314.29905,3,-0.086,-0.242,9.236,4,0.566,0.044,-0.160
972314.30026,3,-0.098,-0.232,9.184,4,0.568,0.048,-0.163
972314.30148,3,-0.120,-0.223,9.138,4,0.567,0.049,-0.167
972314.30269,3,-0.132,-0.218,9.090,4,0.566,0.054,-0.172
972314.30391,3,-0.144,-0.223,9.050,4,0.564,0.056,-0.175,5,-10.050,-27.169,12.356
972314.30512,3,-0.151,-0.223,8.997,4,0.558,0.062,-0.180
972314.30634,3,-0.148,-0.220,8.942,4,0.553,0.064,-0.181
972314.30755,3,-0.167,-0.220,8.908,4,0.546,0.069,-0.187
972314.30877,3,-0.194,-0.215,8.877
972314.30998,3,-0.203,-0.218,8.839,4,0.532,0.074,-0.189
972314.31120,3,-0.215,-0.220,8.803
972314.31241,3,-0.237,-0.223,8.772,4,0.509,0.083,-0.194
972314.31363,3,-0.268,-0.223,8.741,4,0.495,0.088,-0.193,5,-9.975,-27.188,12.225
972314.31485,3,-0.292,-0.203,8.705
972314.31606,3,-0.307,-0.189,8.667,4,0.468,0.096,-0.194
972314.31728,3,-0.328,-0.184,8.638,4,0.450,0.099,-0.195
972314.31849,3,-0.342,-0.182,8.609,4,0.436,0.103,-0.196
972314.31971,3,-0.352,-0.182,8.585,4,0.415,0.107,-0.196
972314.32092,3,-0.364,-0.175,8.566,4,0.399,0.110,-0.199
972314.32214,3,-0.376,-0.165,8.554,4,0.380,0.117,-0.197
972314.32335,3,-0.390,-0.153,8.549,4,0.361,0.117,-0.193
972314.32457,3,-0.409,-0.141,8.542,4,0.336,0.123,-0.197,5,-9.994,-27.038,12.338
972314.32578,3,-0.424,-0.139,8.530,4,0.318,0.122,-0.193
972314.32700,3,-0.441,-0.144,8.518,4,0.293,0.127,-0.193
972314.32821,3,-0.455,-0.139,8.518,4,0.269,0.134,-0.193
972314.32943,3,-0.469,-0.132,8.521,4,0.247,0.136,-0.189
972314.33064,3,-0.493,-0.129,8.521,4,0.224,0.139,-0.187
972314.33186,3,-0.515,-0.122,8.513,4,0.202,0.145,-0.186
972314.33308,3,-0.532,-0.112,8.499
972314.33429,3,-0.548,-0.100,8.497,4,0.153,0.151,-0.182,5,-10.106,-27.206,12.488
972314.33551,3,-0.563,-0.103,8.499,4,0.126,0.158,-0.179
972314.33672,3,-0.565,-0.108,8.509,4,0.100,0.162,-0.177
972314.33794,3,-0.572,-0.096,8.518,4,0.076,0.166,-0.176
972314.33915,3,-0.589,-0.086,8.525
972314.34037,3,-0.608,-0.093,8.552,4,0.026,0.177,-0.170
972314.34158,3,-0.618,-0.103,8.580
972314.34280,3,-0.625,-0.103,8.595,4,-0.023,0.185,-0.163
972314.34401,3,-0.634,-0.103,8.614,4,-0.046,0.191,-0.162,5,-10.125,-27.188,12.413
972314.34523,3,-0.639,-0.105,8.635,4,-0.072,0.194,-0.162
972314.34644,3,-0.644,-0.108,8.664,4,-0.098,0.197,-0.156
972314.34766,3,-0.654,-0.103,8.703,4,-0.120,0.200,-0.154
972314.34887,3,-0.654,-0.096,8.741
972314.35009,3,-0.661,-0.091,8.774,4,-0.165,0.204,-0.145
972314.35131,3,-0.666,-0.091,8.822,4,-0.187,0.205,-0.143
972314.35252,3,-0.668,-0.103,8.865,4,-0.209,0.208,-0.140
972314.35374,3,-0.673,-0.110,8.899,4,-0.226,0.208,-0.135,5,-10.163,-27.150,12.675
972314.35495,3,-0.670,-0.105,8.935,4,-0.250,0.210,-0.132
972314.35617,3,-0.677,-0.108,8.973,4,-0.269,0.210,-0.127
972314.35738,3,-0.687,-0.096,9.016
972314.35860,3,-0.687,-0.079,9.050,4,-0.307,0.209,-0.118
972314.35981,3,-0.682,-0.086,9.081,4,-0.324,0.208,-0.112
972314.36103,3,-0.685,-0.100,9.124
972314.36224,3,-0.692,-0.105,9.160,4,-0.355,0.208,-0.101
972314.36346,3,-0.706,-0.098,9.208,4,-0.371,0.208,-0.096,5,-9.900,-27.206,12.713
972314.36467,3,-0.725,-0.091,9.253,4,-0.383,0.207,-0.090
972314.36589,3,-0.742,-0.079,9.289,4,-0.397,0.205,-0.084
972314.36710,3,-0.752,-0.069,9.323
972314.36832,3,-0.759,-0.060,9.366,4,-0.422,0.202,-0.070
972314.36953,3,-0.773,-0.048,9.421
972314.37075,3,-0.780,-0.041,9.476,4,-0.444,0.192,-0.058
972314.37197,3,-0.780,-0.038,9.521
972314.37318,3,-0.778,-0.033,9.572,4,-0.462,0.186,-0.043
972314.37440,3,-0.776,-0.022,9.617,4,-0.466,0.179,-0.033,5,-9.900,-27.244,12.769
972314.37561,3,-0.771,-0.014,9.658
972314.37683,3,-0.749,-0.019,9.703,4,-0.471,0.175,-0.025
972314.37804,3,-0.728,-0.026,9.756,4,-0.482,0.170,-0.018
972314.37926,3,-0.716,-0.031,9.806,4,-0.485,0.165,-0.007
972314.38047,3,-0.689,-0.024,9.857,4,-0.494,0.155,0.008
972314.38169,3,-0.666,-0.022,9.902,4,-0.491,0.148,0.017
972314.38290,3,-0.649,-0.045,9.948
972314.38412,3,-0.630,-0.050,9.979,4,-0.494,0.137,0.031,5,-9.806,-27.113,13.031
972314.38533,3,-0.608,-0.053,10.003,4,-0.495,0.136,0.040
972314.38655,3,-0.570,-0.057,10.038,4,-0.492,0.127,0.047
972314.38776,3,-0.541,-0.065,10.074
972314.38898,3,-0.517,-0.072,10.110,4,-0.486,0.121,0.063
972314.39020,3,-0.484,-0.072,10.151,4,-0.482,0.119,0.067
972314.39141,3,-0.450,-0.077,10.192,4,-0.476,0.113,0.076
972314.39263,3,-0.409,-0.077,10.225,4,-0.468,0.112,0.082
972314.39384,3,-0.366,-0.072,10.247,4,-0.462,0.110,0.088,5,-9.975,-27.263,13.163
972314.39506,3,-0.328,-0.077,10.271,4,-0.451,0.106,0.096
972314.39627,3,-0.287,-0.086,10.295
972314.39749,3,-0.251,-0.098,10.314,4,-0.443,0.103,0.099
972314.39870,3,-0.215,-0.110,10.330,4,-0.415,0.099,0.111
972314.39992,3,-0.167,-0.117,10.342,4,-0.401,0.100,0.113
972314.40113,3,-0.129,-0.120,10.354
972314.40235,3,-0.100,-0.124,10.366,4,-0.378,0.099,0.118
972314.40356,3,-0.065,-0.120,10.371,4,-0.363,0.098,0.119,5,-9.713,-27.394,13.256
972314.40478,3,-0.033,-0.122,10.364,4,-0.345,0.097,0.124
972314.40599,3,-0.007,-0.129,10.354,4,-0.326,0.097,0.126
972314.40721,3,0.012,-0.127,10.340
972314.40843,3,0.043,-0.124,10.330,4,-0.291,0.097,0.130
972314.40964,3,0.072,-0.124,10.326,4,-0.272,0.098,0.133
972314.41086,3,0.093,-0.134,10.316,4,-0.254,0.095,0.135
972314.41207,3,0.115,-0.139,10.299,4,-0.232,0.096,0.137
972314.41329,3,0.129,-0.134,10.287
972314.41450,3,0.141,-0.136,10.273,4,-0.192,0.094,0.140,5,-9.544,-27.338,13.144
972314.41572,3,0.156,-0.124,10.249,4,-0.166,0.089,0.141
972314.41693,3,0.163,-0.112,10.228,4,-0.145,0.090,0.141
972314.41815,3,0.158,-0.103,10.189,4,-0.122,0.087,0.143
972314.41936,3,0.156,-0.098,10.144,4,-0.099,0.086,0.145
972314.42058,3,0.160,-0.096,10.105,4,-0.073,0.082,0.147
972314.42179,3,0.160,-0.091,10.065,4,-0.050,0.080,0.148
972314.42301,3,0.153,-0.081,10.017,4,-0.028,0.075,0.148
972314.42422,3,0.148,-0.067,9.979,4,-0.002,0.071,0.148,5,-9.488,-27.506,13.125
972314.42544,3,0.148,-0.055,9.943,4,0.020,0.069,0.151
972314.42665,3,0.141,-0.050,9.890,4,0.042,0.067,0.147
972314.42787,3,0.136,-0.050,9.835,4,0.065,0.065,0.149
972314.42909,3,0.134,-0.048,9.785,4,0.089,0.061,0.152
972314.43030,3,0.129,-0.036,9.730,4,0.110,0.057,0.149
972314.43152,3,0.120,-0.024,9.672,4,0.131,0.052,0.148
972314.43273,3,0.110,-0.012,9.612,4,0.157,0.047,0.148
972314.43395,3,0.096,0.005,9.552,4,0.175,0.047,0.148,5,-9.525,-27.600,13.031
972314.43516,3,0.081,0.017,9.495,4,0.199,0.037,0.148
972314.43638,3,0.072,0.024,9.438,4,0.220,0.032,0.145
972314.43759,3,0.067,0.038,9.387,4,0.239,0.028,0.145
972314.43881,3,0.062,0.050,9.344,4,0.258,0.021,0.143
972314.44002,3,0.060,0.057,9.296
972314.44124,3,0.060,0.072,9.246,4,0.296,0.010,0.139
972314.44245,3,0.048,0.077,9.191,4,0.312,0.003,0.138
972314.44367,3,0.043,0.086,9.136,4,0.330,-0.002,0.136,5,-9.694,-27.563,13.050
972314.44488,3,0.038,0.103,9.078,4,0.347,-0.010,0.132
972314.44610,3,0.033,0.117,9.023,4,0.363,-0.016,0.132
972314.44732,3,0.038,0.134,8.968,4,0.374,-0.023,0.131
972314.44853,3,0.045,0.158,8.908
972314.44975,3,0.045,0.177,8.858,4,0.387,-0.031,0.127
972314.45096,3,0.033,0.187,8.803,4,0.399,-0.037,0.124
972314.45218,3,0.024,0.206,8.746,4,0.419,-0.054,0.118
972314.45339,3,0.010,0.232,8.693,4,0.431,-0.059,0.115
972314.45461,3,-0.010,0.254,8.647,5,-9.919,-27.431,13.069
972314.45582,3,-0.017,0.268,8.607,4,0.444,-0.075,0.109
972314.45704,3,-0.022,0.280,8.566,4,0.449,-0.083,0.105
972314.45825,3,-0.031,0.297,8.523,4,0.454,-0.088,0.104
972314.45947,3,-0.033,0.307,8.477
972314.46068,3,-0.043,0.314,8.427,4,0.459,-0.097,0.099
972314.46190,3,-0.055,0.335,8.387,4,0.463,-0.114,0.091
972314.46311,3,-0.057,0.362,8.358,4,0.466,-0.124,0.088
972314.46433,3,-0.062,0.374,8.315,5,-10.238,-27.431,13.013
972314.46555,3,-0.074,0.402,8.272,4,0.464,-0.137,0.078
972314.46676,3,-0.081,0.419,8.236
972314.46798,3,-0.081,0.429,8.202,4,0.458,-0.152,0.070
972314.46919,3,-0.079,0.445,8.164,4,0.455,-0.162,0.064
972314.47041,3,-0.072,0.465,8.125,4,0.452,-0.170,0.062
972314.47162,3,-0.065,0.476,8.085,4,0.448,-0.178,0.057
972314.47284,3,-0.065,0.493,8.051
972314.47405,3,-0.077,0.510,8.020,4,0.429,-0.192,0.047,5,-10.313,-27.263,13.013
972314.47527,3,-0.086,0.529,7.987,4,0.426,-0.199,0.039
972314.47648,3,-0.081,0.551,7.958,4,0.416,-0.204,0.038
972314.47770,3,-0.072,0.570,7.924,4,0.407,-0.212,0.033
972314.47891,3,-0.067,0.575,7.893,4,0.396,-0.218,0.029
972314.48013,3,-0.079,0.589,7.874,4,0.388,-0.225,0.025
972314.48134,3,-0.093,0.608,7.860,4,0.378,-0.233,0.020
972314.48256,3,-0.098,0.630,7.838,4,0.367,-0.238,0.015
972314.48377,3,-0.081,0.644,7.807,4,0.350,-0.244,0.012,5,-10.463,-27.356,12.919
972314.48499,3,-0.065,0.661,7.776
972314.48621,3,-0.065,0.692,7.757,4,0.330,-0.257,0.005
972314.48742,3,-0.074,0.721,7.745,4,0.316,-0.261,-0.000
972314.48864,3,-0.069,0.730,7.728,4,0.300,-0.266,-0.004
972314.48985,3,-0.060,0.735,7.707,4,0.286,-0.271,-0.008
972314.49107,3,-0.060,0.756,7.680,4,0.272,-0.276,-0.009
972314.49228,3,-0.060,0.778,7.649,4,0.260,-0.280,-0.014
972314.49350,3,-0.067,0.807,7.623,4,0.246,-0.280,-0.017,5,-10.613,-27.506,12.975
972314.49471,3,-0.074,0.843,7.604,4,0.231,-0.283,-0.019
972314.49593,3,-0.081,0.862,7.592,4,0.217,-0.286,-0.021
972314.49714,3,-0.096,0.888,7.585
972314.49836,3,-0.105,0.912,7.570,4,0.191,-0.287,-0.027
972314.49957,3,-0.100,0.919,7.563,4,0.179,-0.289,-0.025
972314.50079,3,-0.093,0.931,7.568,4,0.166,-0.291,-0.027
972314.50200,3,-0.096,0.948,7.577,4,0.152,-0.291,-0.030
972314.50322,3,-0.093,0.974,7.592,4,0.140,-0.293,-0.030
972314.50444,3,-0.100,0.991,7.616,4,0.130,-0.293,-0.032,5,-10.763,-27.469,13.013
972314.50565,3,-0.096,1.006,7.635,4,0.115,-0.295,-0.032
972314.50687,3,-0.081,1.025,7.654,4,0.098,-0.296,-0.035
972314.50808,3,-0.074,1.032,7.676,4,0.091,-0.299,-0.038
972314.50930,3,-0.053,1.041,7.700
972314.51051,3,-0.036,1.049,7.723,4,0.075,-0.297,-0.039
972314.51173,3,-0.031,1.056,7.747,4,0.065,-0.304,-0.036
972314.51294,3,-0.024,1.073,7.774,4,0.055,-0.308,-0.040
972314.51416,3,-0.022,1.073,7.802,4,0.028,-0.308,-0.043,5,-10.650,-27.544,13.106
972314.51537,3,-0.005,1.070,7.831
972314.51659,3,0.017,1.075,7.862,4,0.006,-0.315,-0.044
972314.51780,3,0.029,1.080,7.891,4,-0.007,-0.315,-0.045
972314.51902,3,0.045,1.085,7.915,4,-0.014,-0.317,-0.046
972314.52023,3,0.062,1.092,7.951,4,-0.022,-0.316,-0.046
972314.52145,3,0.069,1.099,7.975,4,-0.034,-0.316,-0.046
972314.52267,3,0.079,1.099,7.991,4,-0.044,-0.316,-0.047
972314.52388,3,0.093,1.094,8.018,4,-0.052,-0.310,-0.045,5,-10.744,-27.806,13.013
972314.52510,3,0.108,1.092,8.046,4,-0.059,-0.312,-0.046
972314.52631,3,0.124,1.094,8.073,4,-0.069,-0.308,-0.046
972314.52753,3,0.136,1.104,8.090,4,-0.075,-0.306,-0.048
972314.52874,3,0.151,1.123,8.118
972314.52996,3,0.165,1.128,8.162,4,-0.090,-0.295,-0.049
972314.53117,3,0.172,1.125,8.198,4,-0.098,-0.293,-0.047
972314.53239,3,0.182,1.125,8.219,4,-0.101,-0.291,-0.046
972314.53360,3,0.182,1.120,8.233,5,-10.594,-27.900,13.031
972314.53482,3,0.177,1.130,8.245,4,-0.105,-0.283,-0.047
972314.53603,3,0.182,1.147,8.267,4,-0.116,-0.269,-0.045
972314.53725,3,0.187,1.149,8.281,4,-0.119,-0.263,-0.046
972314.53846,3,0.182,1.152,8.293,4,-0.124,-0.257,-0.043
972314.53968,3,0.160,1.159,8.308
972314.54090,3,0.146,1.171,8.320,4,-0.133,-0.236,-0.042
