timestamp,accel,accelX,accelY,accelZ,gyro,gyroX,gyroY,gyroZ
972160.55195,3,0.074,1.144,9.533
972160.55316,3,0.055,1.140,9.548
972160.55438,3,0.031,1.135,9.557
972160.55560,3,0.000,1.132,9.552
972160.55682,3,-0.010,1.130,9.540
972160.55803,3,-0.010,1.132,9.545
972160.55925,3,-0.026,1.132,9.550
972160.56049,3,-0.045,1.120,9.538
972160.56173,3,-0.062,1.111,9.524
972160.56297,3,-0.062,1.104,9.512
972160.56420,3,-0.067,1.092,9.505
972160.56541,3,-0.077,1.082,9.514
972160.56663,3,-0.086,1.080,9.512
972160.56784,3,-0.110,1.077,9.495
972160.56906,3,-0.132,1.073,9.490
972160.57027,3,-0.134,1.061,9.495
972160.57149,3,-0.127,1.044,9.500
972160.57270,3,-0.129,1.034,9.502
972160.57392,3,-0.139,1.030,9.502
972160.57513,3,-0.144,1.025,9.505
972160.57635,3,-0.146,1.022,9.505,5,-9.713,-31.819,10.519
972160.57756,3,-0.146,1.020,9.495
972160.57878,3,-0.146,1.013,9.493
972160.58000,3,-0.146,1.003,9.497
972160.58121,3,-0.141,0.998,9.485
972160.58243,3,-0.148,1.001,9.473
972160.58364,3,-0.156,0.998,9.473
972160.58486,3,-0.158,0.991,9.466
972160.58607,3,-0.158,0.989,9.462,5,-9.938,-31.219,9.975
972160.58729,3,-0.146,0.989,9.462
972160.58850,3,-0.141,0.991,9.459
972160.58972,3,-0.146,0.994,9.445
972160.59093,3,-0.141,0.998,9.440
972160.59215,3,-0.141,0.998,9.447
972160.59336,3,-0.151,0.998,9.450
972160.59458,3,-0.156,1.001,9.454
972160.59579,3,-0.160,1.006,9.462,5,-9.825,-31.106,9.581
972160.59701,3,-0.165,1.018,9.469
972160.59822,3,-0.160,1.034,9.478
972160.59944,3,-0.160,1.049,9.495
972160.60065,3,-0.160,1.070,9.519
972160.60187,3,-0.160,1.085,9.543
972160.60309,3,-0.156,1.092,9.569
972160.60430,3,-0.153,1.104,9.593
972160.60552,3,-0.148,1.111,9.617
972160.60673,3,-0.151,1.130,9.641,5,-9.863,-30.863,9.225
972160.60795,3,-0.158,1.149,9.655
972160.60916,3,-0.148,1.161,9.670
972160.61038,3,-0.141,1.175,9.672
972160.61159,3,-0.144,1.190,9.660,4,-0.138,0.138,0.007
972160.61281,3,-0.160,1.197,9.653,4,-0.137,0.129,0.014
972160.61402,3,-0.177,1.204,9.648,4,-0.134,0.123,0.012
972160.61524,3,-0.199,1.216,9.643,4,-0.136,0.119,0.004
972160.61645,3,-0.223,1.226,9.639,5,-9.731,-30.900,9.356
972160.61767,3,-0.232,1.250,9.629,4,-0.127,0.105,0.008
972160.61888,3,-0.242,1.266,9.619,4,-0.128,0.102,0.003
972160.62010,3,-0.246,1.262,9.607,4,-0.127,0.095,0.011
972160.62131,3,-0.249,1.262,9.586,4,-0.124,0.087,0.006
972160.62253,3,-0.266,1.257,9.569,4,-0.123,0.083,0.007
972160.62375,3,-0.283,1.259,9.555
972160.62496,3,-0.287,1.274,9.548,4,-0.120,0.070,0.006
972160.62618,3,-0.290,1.269,9.543,4,-0.123,0.067,0.009,5,-9.525,-30.994,9.394
972160.62739,3,-0.292,1.257,9.533,4,-0.123,0.061,0.009
972160.62861,3,-0.299,1.262,9.521,4,-0.124,0.055,0.006
972160.62982,3,-0.299,1.271,9.519,4,-0.122,0.050,0.010
972160.63104,3,-0.285,1.271,9.529,4,-0.122,0.040,0.009
972160.63225,3,-0.275,1.269,9.550,4,-0.124,0.036,0.006
972160.63347,3,-0.280,1.264,9.564,4,-0.123,0.025,0.011
972160.63468,3,-0.290,1.264,9.576
972160.63590,3,-0.287,1.264,9.588,4,-0.130,0.018,0.008,5,-9.544,-31.050,9.375
972160.63711,3,-0.275,1.269,9.591,4,-0.134,-0.001,0.012
972160.63833,3,-0.261,1.274,9.593,4,-0.133,-0.013,0.009
972160.63954,3,-0.249,1.276,9.600
972160.64076,3,-0.249,1.266,9.612,4,-0.134,-0.034,0.014
972160.64198,3,-0.251,1.269,9.622,4,-0.134,-0.045,0.007
972160.64319,3,-0.246,1.290,9.624,4,-0.138,-0.056,0.010
972160.64441,3,-0.239,1.307,9.627,4,-0.139,-0.065,0.008
972160.64562,3,-0.242,1.317,9.627
972160.64684,3,-0.246,1.324,9.631,4,-0.142,-0.075,0.006,5,-9.488,-31.088,9.450
972160.64805,3,-0.249,1.326,9.634,4,-0.144,-0.093,0.008
972160.64927,3,-0.244,1.321,9.643,4,-0.146,-0.101,0.003
972160.65048,3,-0.239,1.333,9.653,4,-0.146,-0.111,0.008
972160.65170,3,-0.239,1.353,9.660
972160.65291,3,-0.234,1.365,9.667,4,-0.145,-0.127,0.003
972160.65413,3,-0.223,1.379,9.670,4,-0.149,-0.133,0.003
972160.65534,3,-0.211,1.393,9.677,5,-9.469,-30.938,8.831
972160.65656,3,-0.208,1.408,9.686,4,-0.147,-0.142,0.001
972160.65777,3,-0.203,1.417,9.691,4,-0.145,-0.150,0.003
972160.65899,3,-0.196,1.420,9.691,4,-0.146,-0.154,-0.003
972160.66020,3,-0.194,1.422,9.684
972160.66142,3,-0.194,1.434,9.684,4,-0.143,-0.159,-0.002
972160.66264,3,-0.187,1.439,9.686,4,-0.138,-0.164,-0.005
972160.66385,3,-0.182,1.439,9.701,4,-0.139,-0.161,-0.005
972160.66507,3,-0.182,1.446,9.715
972160.66628,3,-0.177,1.453,9.720,4,-0.133,-0.165,-0.008,5,-9.244,-30.788,8.550
972160.66750,3,-0.175,1.437,9.718,4,-0.126,-0.164,-0.006
972160.66871,3,-0.179,1.420,9.710,4,-0.124,-0.163,-0.010
972160.66993,3,-0.177,1.413,9.706
972160.67114,3,-0.170,1.413,9.703,4,-0.117,-0.160,-0.008
972160.67236,3,-0.158,1.420,9.703,4,-0.114,-0.156,-0.015
972160.67357,3,-0.156,1.415,9.698
972160.67479,3,-0.163,1.408,9.689,4,-0.112,-0.155,-0.014
972160.67600,3,-0.170,1.408,9.689,4,-0.104,-0.148,-0.018,5,-9.225,-30.994,8.588
972160.67722,3,-0.172,1.400,9.698,4,-0.101,-0.147,-0.017
972160.67843,3,-0.184,1.386,9.701
972160.67965,3,-0.191,1.374,9.703,4,-0.094,-0.140,-0.019
972160.68087,3,-0.191,1.367,9.706
972160.68208,3,-0.211,1.357,9.715,4,-0.090,-0.136,-0.019
972160.68330,3,-0.239,1.343,9.725,4,-0.082,-0.131,-0.022
972160.68451,3,-0.256,1.348,9.725,4,-0.081,-0.127,-0.019
972160.68573,3,-0.258,1.360,9.727,4,-0.080,-0.126,-0.017,5,-9.188,-31.163,8.588
972160.68694,3,-0.261,1.360,9.739
972160.68816,3,-0.270,1.360,9.756,4,-0.080,-0.123,-0.019
972160.68937,3,-0.295,1.360,9.770,4,-0.073,-0.124,-0.012
972160.69059,3,-0.319,1.343,9.777
972160.69180,3,-0.328,1.326,9.792,4,-0.072,-0.121,-0.010
972160.69302,3,-0.331,1.331,9.813
972160.69423,3,-0.342,1.338,9.840,4,-0.072,-0.125,-0.006
972160.69545,3,-0.357,1.329,9.854,4,-0.068,-0.126,0.004
972160.69666,3,-0.359,1.307,9.866,4,-0.066,-0.129,0.008,5,-9.094,-31.013,8.475
972160.69788,3,-0.357,1.281,9.885
972160.69910,3,-0.359,1.254,9.902,4,-0.062,-0.139,0.016
972160.70031,3,-0.357,1.235,9.914
972160.70153,3,-0.354,1.219,9.931,4,-0.063,-0.140,0.019
972160.70274,3,-0.345,1.195,9.945,4,-0.063,-0.146,0.027
972160.70396,3,-0.338,1.171,9.950,4,-0.065,-0.150,0.030
972160.70517,3,-0.333,1.159,9.957,4,-0.063,-0.154,0.036
972160.70639,3,-0.333,1.152,9.974,4,-0.066,-0.154,0.042,5,-9.094,-30.919,8.156
972160.70760,3,-0.328,1.142,9.983,4,-0.064,-0.156,0.041
972160.70882,3,-0.326,1.135,9.991,4,-0.066,-0.161,0.050
972160.71003,3,-0.323,1.125,10.000,4,-0.066,-0.162,0.052
972160.71125,3,-0.311,1.111,9.995
972160.71246,3,-0.299,1.099,9.991,4,-0.072,-0.165,0.060
972160.71368,3,-0.278,1.092,9.995
972160.71489,3,-0.261,1.082,10.000,4,-0.078,-0.165,0.063
972160.71611,3,-0.246,1.077,10.003,4,-0.080,-0.164,0.071,5,-9.150,-30.863,8.156
972160.71732,3,-0.239,1.080,10.012
972160.71854,3,-0.239,1.073,10.017,4,-0.083,-0.161,0.071
972160.71976,3,-0.232,1.063,10.019,4,-0.085,-0.163,0.078
972160.72097,3,-0.232,1.061,10.017,4,-0.085,-0.161,0.081
972160.72219,3,-0.225,1.068,10.012,4,-0.091,-0.161,0.082
972160.72340,3,-0.218,1.085,10.010,4,-0.098,-0.156,0.084
972160.72462,3,-0.203,1.099,10.007,4,-0.098,-0.154,0.088
972160.72583,3,-0.184,1.111,9.998,4,-0.105,-0.148,0.092
972160.72705,3,-0.184,1.111,9.998,5,-9.263,-30.806,8.081
972160.72826,3,-0.187,1.104,10.010,4,-0.109,-0.145,0.091
972160.72948,3,-0.172,1.097,10.019,4,-0.114,-0.142,0.095
972160.73069,3,-0.153,1.097,10.031,4,-0.119,-0.139,0.097
972160.73191,3,-0.134,1.101,10.048
972160.73312,3,-0.122,1.106,10.060,4,-0.123,-0.134,0.096
972160.73434,3,-0.103,1.108,10.077,4,-0.126,-0.131,0.099
972160.73555,3,-0.081,1.116,10.094,4,-0.131,-0.128,0.096
972160.73677,3,-0.072,1.118,10.117,4,-0.131,-0.124,0.096,5,-9.319,-30.694,8.569
972160.73799,3,-0.062,1.130,10.134,4,-0.133,-0.124,0.092
972160.73920,3,-0.055,1.137,10.146,4,-0.133,-0.120,0.094
972160.74042,3,-0.057,1.140,10.158,4,-0.133,-0.118,0.092
972160.74163,3,-0.065,1.142,10.158
972160.74285,3,-0.065,1.140,10.158,4,-0.129,-0.112,0.089
972160.74406,3,-0.050,1.149,10.168,4,-0.130,-0.106,0.088
972160.74528,3,-0.036,1.161,10.170
972160.74649,3,-0.029,1.171,10.168,4,-0.126,-0.099,0.088,5,-9.450,-31.013,8.531
972160.74771,3,-0.031,1.173,10.175,4,-0.123,-0.093,0.088
972160.74892,3,-0.041,1.180,10.177,4,-0.118,-0.090,0.086
972160.75014,3,-0.041,1.180,10.175
972160.75135,3,-0.033,1.168,10.163,4,-0.113,-0.087,0.087
972160.75257,3,-0.038,1.166,10.153,4,-0.110,-0.080,0.085
972160.75378,3,-0.048,1.161,10.141,4,-0.103,-0.078,0.082
972160.75500,3,-0.050,1.140,10.125,4,-0.100,-0.072,0.083
972160.75621,3,-0.041,1.128,10.115,4,-0.087,-0.062,0.080,5,-9.244,-30.525,8.400
972160.75743,3,-0.029,1.125,10.108
972160.75865,3,-0.031,1.120,10.096,4,-0.077,-0.054,0.082
972160.75986,3,-0.041,1.106,10.079,4,-0.067,-0.044,0.080
972160.76108,3,-0.050,1.092,10.060,4,-0.059,-0.038,0.082
972160.76229,3,-0.053,1.082,10.038
972160.76351,3,-0.055,1.080,10.024,4,-0.052,-0.034,0.078
972160.76472,3,-0.060,1.075,10.012,4,-0.038,-0.018,0.080
972160.76594,3,-0.065,1.061,9.991,5,-9.225,-30.506,8.269
972160.76715,3,-0.060,1.051,9.967,4,-0.027,0.000,0.075
972160.76837,3,-0.062,1.049,9.936,4,-0.021,0.004,0.078
972160.76958,3,-0.079,1.051,9.914,4,-0.013,0.013,0.075
972160.77080,3,-0.089,1.053,9.907
972160.77201,3,-0.089,1.049,9.893,4,-0.007,0.018,0.078
972160.77323,3,-0.079,1.039,9.881,4,-0.006,0.027,0.077
972160.77444,3,-0.086,1.037,9.866,4,0.000,0.036,0.077
972160.77566,3,-0.093,1.032,9.847,4,0.006,0.042,0.078
972160.77688,3,-0.096,1.030,9.830,4,0.017,0.053,0.080,5,-9.544,-30.525,8.306
972160.77809,3,-0.105,1.027,9.808
972160.77931,3,-0.112,1.020,9.789,4,0.022,0.061,0.082
972160.78052,3,-0.122,1.022,9.775,4,0.022,0.067,0.081
972160.78174,3,-0.127,1.032,9.768,4,0.023,0.072,0.080
972160.78295,3,-0.132,1.046,9.761
972160.78417,3,-0.141,1.046,9.749,4,0.026,0.077,0.081
972160.78538,3,-0.148,1.039,9.730
972160.78660,3,-0.160,1.046,9.701,4,0.029,0.078,0.081,5,-9.338,-30.656,8.588
972160.78781,3,-0.179,1.056,9.672,4,0.028,0.086,0.082
972160.78903,3,-0.194,1.070,9.658
972160.79024,3,-0.206,1.087,9.643,4,0.023,0.093,0.080
972160.79146,3,-0.215,1.101,9.615
972160.79267,3,-0.232,1.118,9.588,4,0.022,0.095,0.087
972160.79389,3,-0.251,1.137,9.562,4,0.017,0.100,0.086
972160.79510,3,-0.268,1.156,9.531,4,0.012,0.103,0.088
972160.79632,3,-0.280,1.173,9.505,4,0.014,0.102,0.087,5,-9.281,-30.563,8.625
972160.79754,3,-0.280,1.178,9.488,4,0.006,0.105,0.091
972160.79875,3,-0.290,1.192,9.469,4,0.008,0.108,0.092
972160.79997,3,-0.307,1.211,9.457,4,0.003,0.108,0.093
972160.80118,3,-0.323,1.231,9.454,4,-0.003,0.109,0.094
972160.80240,3,-0.323,1.231,9.447
972160.80361,3,-0.323,1.233,9.433,4,-0.013,0.113,0.097
972160.80483,3,-0.335,1.247,9.414,4,-0.017,0.114,0.099
972160.80604,3,-0.338,1.240,9.397,4,-0.022,0.115,0.101,5,-9.094,-30.356,8.306
972160.80726,3,-0.335,1.233,9.383,4,-0.024,0.113,0.104
972160.80847,3,-0.335,1.245,9.375,4,-0.028,0.114,0.105
972160.80969,3,-0.338,1.257,9.359
972160.81090,3,-0.335,1.266,9.342,4,-0.036,0.114,0.111
972160.81212,3,-0.342,1.269,9.342
972160.81333,3,-0.345,1.274,9.335,4,-0.050,0.116,0.112
972160.81455,3,-0.331,1.283,9.320,4,-0.052,0.113,0.116
972160.81577,3,-0.331,1.293,9.313,4,-0.061,0.114,0.117
972160.81698,3,-0.338,1.305,9.306,4,-0.065,0.115,0.119,5,-9.056,-30.731,7.988
972160.81820,3,-0.345,1.305,9.306,4,-0.069,0.114,0.121
972160.81941,3,-0.359,1.300,9.311,4,-0.074,0.118,0.122
972160.82063,3,-0.364,1.302,9.313
972160.82184,3,-0.366,1.309,9.323,4,-0.084,0.113,0.129
972160.82306,3,-0.369,1.307,9.332,4,-0.090,0.114,0.130
972160.82427,3,-0.366,1.305,9.344
972160.82549,3,-0.359,1.300,9.366,4,-0.099,0.108,0.133
972160.82670,3,-0.352,1.295,9.385,4,-0.104,0.108,0.132,5,-8.925,-30.600,8.138
972160.82792,3,-0.340,1.293,9.404
972160.82913,3,-0.333,1.293,9.428,4,-0.109,0.104,0.132
972160.83035,3,-0.333,1.298,9.450,4,-0.110,0.103,0.134
972160.83156,3,-0.335,1.295,9.476,4,-0.110,0.097,0.136
972160.83278,3,-0.333,1.293,9.500,4,-0.118,0.089,0.138
972160.83400,3,-0.328,1.293,9.512,4,-0.119,0.084,0.137
972160.83521,3,-0.319,1.286,9.524,4,-0.124,0.081,0.139
972160.83643,3,-0.314,1.281,9.548,5,-9.281,-31.125,8.306
972160.83764,3,-0.323,1.276,9.564,4,-0.127,0.076,0.137
972160.83886,3,-0.323,1.274,9.579,4,-0.126,0.064,0.138
972160.84007,3,-0.311,1.271,9.596
972160.84129,3,-0.302,1.269,9.607,4,-0.130,0.054,0.135
972160.84250,3,-0.292,1.281,9.622,4,-0.132,0.048,0.139
972160.84372,3,-0.290,1.281,9.636,4,-0.129,0.043,0.134
972160.84493,3,-0.295,1.283,9.641
972160.84615,3,-0.292,1.288,9.648,4,-0.130,0.031,0.132,5,-9.281,-31.313,8.456
972160.84736,3,-0.287,1.278,9.660
972160.84858,3,-0.287,1.274,9.674,4,-0.132,0.028,0.131
972160.84979,3,-0.295,1.278,9.694,4,-0.132,0.018,0.128
972160.85101,3,-0.304,1.286,9.701,4,-0.131,0.016,0.127
972160.85222,3,-0.307,1.290,9.703
972160.85344,3,-0.311,1.290,9.710,4,-0.130,0.009,0.127
972160.85466,3,-0.314,1.295,9.730,4,-0.129,0.005,0.126
972160.85587,3,-0.319,1.298,9.756,4,-0.128,-0.001,0.123,5,-9.188,-31.481,8.213
972160.85709,3,-0.328,1.302,9.775,4,-0.130,-0.005,0.119
972160.85830,3,-0.321,1.309,9.785,4,-0.131,-0.008,0.119
972160.85952,3,-0.321,1.309,9.794,4,-0.131,-0.013,0.118
972160.86073,3,-0.331,1.309,9.808,4,-0.135,-0.017,0.115
972160.86195,3,-0.326,1.314,9.828,4,-0.134,-0.020,0.111
972160.86316,3,-0.314,1.314,9.845,4,-0.134,-0.023,0.110
972160.86438,3,-0.311,1.321,9.857,4,-0.138,-0.027,0.105
972160.86559,3,-0.302,1.326,9.869,4,-0.137,-0.030,0.102
972160.86681,3,-0.299,1.326,9.885,4,-0.140,-0.036,0.100,5,-9.450,-31.125,8.156
972160.86802,3,-0.302,1.338,9.890,4,-0.140,-0.037,0.095
972160.86924,3,-0.302,1.350,9.902,4,-0.140,-0.042,0.093
972160.87045,3,-0.311,1.355,9.921,4,-0.143,-0.045,0.090
972160.87167,3,-0.314,1.350,9.936,4,-0.142,-0.048,0.085
972160.87289,3,-0.311,1.350,9.948
972160.87410,3,-0.309,1.357,9.960,4,-0.146,-0.048,0.082
972160.87532,3,-0.299,1.362,9.967,4,-0.150,-0.054,0.077
972160.87653,3,-0.299,1.362,9.971,4,-0.153,-0.058,0.072,5,-9.356,-31.369,8.025
972160.87775,3,-0.304,1.365,9.983,4,-0.154,-0.062,0.067
972160.87896,3,-0.304,1.381,9.995,4,-0.157,-0.063,0.066
972160.88018,3,-0.307,1.398,10.005,4,-0.160,-0.065,0.064
972160.88139,3,-0.311,1.408,10.019
972160.88261,3,-0.311,1.410,10.036,4,-0.159,-0.069,0.062
972160.88382,3,-0.319,1.415,10.046,4,-0.164,-0.071,0.057
972160.88504,3,-0.326,1.429,10.046,4,-0.163,-0.074,0.057
972160.88625,3,-0.314,1.441,10.050,4,-0.167,-0.077,0.052,5,-9.319,-31.575,8.006
972160.88747,3,-0.302,1.439,10.060
972160.88868,3,-0.297,1.441,10.067,4,-0.167,-0.083,0.053
972160.88990,3,-0.292,1.449,10.072,4,-0.165,-0.087,0.048
972160.89111,3,-0.285,1.449,10.077
972160.89233,3,-0.270,1.453,10.079,4,-0.166,-0.093,0.046
972160.89355,3,-0.239,1.463,10.086
972160.89476,3,-0.223,1.463,10.091,4,-0.161,-0.096,0.044
972160.89598,3,-0.223,1.453,10.091,5,-9.563,-31.519,8.325
972160.89719,3,-0.211,1.446,10.084,4,-0.157,-0.097,0.046
972160.89841,3,-0.196,1.444,10.070
972160.89962,3,-0.187,1.439,10.065,4,-0.153,-0.101,0.045
972160.90084,3,-0.179,1.446,10.062,4,-0.148,-0.101,0.044
972160.90205,3,-0.167,1.456,10.043
972160.90327,3,-0.156,1.458,10.027,4,-0.143,-0.098,0.047
972160.90448,3,-0.151,1.456,10.017,4,-0.137,-0.099,0.045
972160.90570,3,-0.139,1.453,10.007,4,-0.131,-0.101,0.045
972160.90691,3,-0.127,1.458,9.991,4,-0.124,-0.097,0.044,5,-9.713,-31.538,8.306
972160.90813,3,-0.117,1.468,9.971,4,-0.119,-0.098,0.045
972160.90934,3,-0.112,1.475,9.952,4,-0.113,-0.097,0.045
972160.91056,3,-0.108,1.484,9.933,4,-0.108,-0.093,0.051
972160.91178,3,-0.098,1.499,9.912,4,-0.099,-0.095,0.047
972160.91299,3,-0.096,1.506,9.890,4,-0.088,-0.094,0.048
972160.91421,3,-0.098,1.511,9.873,4,-0.082,-0.091,0.050
972160.91542,3,-0.096,1.520,9.857,4,-0.073,-0.088,0.050
972160.91664,3,-0.089,1.518,9.833,5,-9.675,-31.650,8.156
972160.91785,3,-0.091,1.511,9.808,4,-0.067,-0.089,0.055
972160.91907,3,-0.096,1.523,9.787,4,-0.050,-0.082,0.056
972160.92028,3,-0.093,1.520,9.765,4,-0.044,-0.074,0.058
972160.92150,3,-0.091,1.525,9.746
972160.92271,3,-0.093,1.547,9.734,4,-0.021,-0.071,0.060
972160.92393,3,-0.103,1.556,9.720,4,-0.015,-0.063,0.063
972160.92514,3,-0.105,1.559,9.694,4,-0.006,-0.061,0.063
972160.92636,3,-0.103,1.566,9.672,4,0.000,-0.056,0.066,5,-9.769,-31.219,8.213
972160.92757,3,-0.112,1.571,9.658
972160.92879,3,-0.110,1.578,9.639,4,0.022,-0.048,0.071
972160.93001,3,-0.098,1.595,9.622,4,0.029,-0.042,0.074
972160.93122,3,-0.096,1.604,9.600,4,0.037,-0.037,0.078
972160.93244,3,-0.100,1.604,9.581,4,0.050,-0.034,0.076
972160.93365,3,-0.103,1.599,9.574
972160.93487,3,-0.096,1.590,9.562,4,0.058,-0.027,0.079
972160.93608,3,-0.093,1.578,9.545,4,0.073,-0.017,0.083,5,-9.788,-31.331,8.269
972160.93730,3,-0.096,1.571,9.521,4,0.085,-0.010,0.086
972160.93851,3,-0.093,1.575,9.490,4,0.092,-0.007,0.088
972160.93973,3,-0.096,1.573,9.462
972160.94094,3,-0.091,1.561,9.445,4,0.108,0.004,0.092
972160.94216,3,-0.091,1.566,9.421,4,0.114,0.009,0.094
972160.94337,3,-0.091,1.578,9.395,4,0.126,0.014,0.097
972160.94459,3,-0.089,1.573,9.368,4,0.133,0.018,0.100
972160.94580,3,-0.105,1.561,9.349,4,0.138,0.021,0.100
972160.94702,3,-0.117,1.554,9.318,5,-10.050,-31.500,8.138
972160.94823,3,-0.110,1.547,9.287,4,0.152,0.036,0.105
972160.94945,3,-0.108,1.539,9.255
972160.95067,3,-0.120,1.542,9.220,4,0.160,0.040,0.107
972160.95188,3,-0.122,1.547,9.200,4,0.168,0.042,0.107
972160.95310,3,-0.132,1.544,9.179,4,0.179,0.053,0.111
972160.95431,3,-0.146,1.537,9.153,4,0.184,0.059,0.115
972160.95553,3,-0.151,1.525,9.124,4,0.188,0.061,0.117
972160.95674,3,-0.153,1.520,9.100,4,0.193,0.067,0.115,5,-10.406,-31.331,8.138
972160.95796,3,-0.156,1.520,9.081,4,0.196,0.069,0.118
972160.95917,3,-0.158,1.523,9.057,4,0.199,0.075,0.118
972160.96039,3,-0.170,1.525,9.026,4,0.201,0.077,0.122
972160.96160,3,-0.191,1.525,8.999,4,0.202,0.081,0.121
972160.96282,3,-0.211,1.520,8.971,4,0.204,0.083,0.122
972160.96403,3,-0.232,1.511,8.942
972160.96525,3,-0.249,1.508,8.916,4,0.208,0.086,0.127
972160.96646,3,-0.256,1.513,8.882,4,0.207,0.091,0.126,5,-10.613,-31.275,8.063
972160.96768,3,-0.256,1.516,8.844,4,0.204,0.095,0.126
972160.96890,3,-0.261,1.511,8.808
972160.97011,3,-0.270,1.511,8.774,4,0.201,0.099,0.126
972160.97133,3,-0.280,1.516,8.746,4,0.197,0.101,0.128
972160.97254,3,-0.283,1.516,8.724,4,0.192,0.104,0.127
972160.97376,3,-0.280,1.506,8.712,4,0.187,0.108,0.127
972160.97497,3,-0.287,1.501,8.690,4,0.185,0.106,0.130
972160.97619,3,-0.292,1.508,8.681,4,0.180,0.108,0.127,5,-10.613,-31.331,7.913
972160.97740,3,-0.299,1.513,8.688,4,0.172,0.104,0.127
972160.97862,3,-0.302,1.525,8.683,4,0.166,0.102,0.127
972160.97983,3,-0.299,1.523,8.681,4,0.157,0.103,0.124
972160.98105,3,-0.297,1.518,8.688,4,0.148,0.097,0.126
972160.98226,3,-0.295,1.508,8.693,4,0.141,0.090,0.125
972160.98348,3,-0.297,1.499,8.698,4,0.132,0.087,0.121
972160.98469,3,-0.292,1.511,8.710,4,0.124,0.086,0.119
972160.98591,3,-0.290,1.528,8.724,4,0.114,0.077,0.119,5,-10.706,-31.313,8.194
972160.98712,3,-0.292,1.532,8.739,4,0.107,0.067,0.115
972160.98834,3,-0.295,1.528,8.755
972160.98956,3,-0.295,1.530,8.770,4,0.087,0.054,0.115
972160.99077,3,-0.290,1.530,8.777,4,0.078,0.045,0.112
972160.99199,3,-0.287,1.528,8.786,4,0.070,0.037,0.109
972160.99320,3,-0.280,1.525,8.791,4,0.062,0.026,0.107
972160.99442,3,-0.275,1.525,8.798
972160.99563,3,-0.278,1.532,8.808,4,0.044,0.007,0.102
972160.99685,3,-0.275,1.539,8.825,4,0.034,-0.002,0.097,5,-10.650,-30.975,8.250
972160.99806,3,-0.263,1.549,8.846,4,0.027,-0.013,0.097
972160.99928,3,-0.249,1.551,8.858,4,0.018,-0.020,0.091
972161.00049,3,-0.239,1.549,8.865,4,0.007,-0.030,0.090
972161.00171,3,-0.246,1.554,8.885,4,-0.002,-0.038,0.088
972161.00292,3,-0.249,1.556,8.894,4,-0.010,-0.045,0.086
972161.00414,3,-0.244,1.559,8.899,4,-0.021,-0.051,0.083
972161.00535,3,-0.237,1.563,8.901,4,-0.028,-0.060,0.081
972161.00657,3,-0.227,1.556,8.904,4,-0.039,-0.067,0.079,5,-10.650,-31.013,8.175
972161.00779,3,-0.227,1.551,8.908
972161.00900,3,-0.220,1.559,8.920,4,-0.046,-0.070,0.077
972161.01022,3,-0.208,1.551,8.928,4,-0.066,-0.078,0.073
972161.01143,3,-0.199,1.532,8.935
972161.01265,3,-0.189,1.516,8.952,4,-0.075,-0.081,0.072
972161.01386,3,-0.170,1.499,8.975,4,-0.088,-0.088,0.066
972161.01508,3,-0.158,1.487,8.997
972161.01629,3,-0.148,1.482,9.014,4,-0.101,-0.088,0.065,5,-10.725,-30.900,8.213
972161.01751,3,-0.141,1.489,9.031,4,-0.115,-0.092,0.060
972161.01872,3,-0.144,1.482,9.054
972161.01994,3,-0.136,1.465,9.088,4,-0.130,-0.094,0.055
972161.02115,3,-0.129,1.465,9.117,4,-0.135,-0.096,0.057
972161.02237,3,-0.115,1.461,9.145,4,-0.143,-0.095,0.054
972161.02358,3,-0.098,1.453,9.181,4,-0.148,-0.099,0.050
972161.02480,3,-0.089,1.449,9.220,4,-0.152,-0.101,0.048
972161.02601,3,-0.081,1.444,9.270,4,-0.159,-0.100,0.047,5,-10.538,-30.806,8.250
972161.02723,3,-0.089,1.444,9.316,4,-0.163,-0.104,0.046
972161.02845,3,-0.103,1.437,9.361
972161.02966,3,-0.100,1.432,9.406,4,-0.168,-0.107,0.042
972161.03088,3,-0.100,1.432,9.447,4,-0.170,-0.107,0.039
972161.03209,3,-0.110,1.439,9.488,4,-0.171,-0.109,0.038
972161.03331,3,-0.117,1.446,9.521
972161.03452,3,-0.112,1.446,9.557,4,-0.173,-0.108,0.035
972161.03574,3,-0.110,1.453,9.591,4,-0.171,-0.103,0.032
972161.03695,3,-0.108,1.453,9.629,5,-10.575,-30.956,8.456
972161.03817,3,-0.103,1.451,9.667,4,-0.166,-0.102,0.033
972161.03938,3,-0.112,1.461,9.701
972161.04060,3,-0.120,1.475,9.737,4,-0.160,-0.094,0.032
972161.04181,3,-0.122,1.484,9.768,4,-0.157,-0.087,0.030
972161.04303,3,-0.129,1.499,9.804,4,-0.152,-0.082,0.030
972161.04424,3,-0.136,1.513,9.847
972161.04546,3,-0.136,1.525,9.871,4,-0.148,-0.078,0.032
972161.04668,3,-0.132,1.544,9.902,4,-0.132,-0.065,0.036,5,-10.556,-31.069,8.813
972161.04789,3,-0.117,1.573,9.948,4,-0.126,-0.056,0.037
972161.04911,3,-0.115,1.595,9.986,4,-0.118,-0.051,0.040
972161.05032,3,-0.105,1.604,10.015,4,-0.111,-0.040,0.043
972161.05154,3,-0.081,1.614,10.041
972161.05275,3,-0.069,1.626,10.074,4,-0.092,-0.026,0.049
972161.05397,3,-0.062,1.635,10.103,4,-0.079,-0.018,0.052
972161.05518,3,-0.062,1.640,10.125
972161.05640,3,-0.062,1.642,10.141,4,-0.073,-0.012,0.055,5,-10.388,-30.881,8.606
972161.05761,3,-0.045,1.635,10.151,4,-0.053,0.005,0.063
972161.05883,3,-0.041,1.635,10.156,4,-0.043,0.012,0.066
972161.06004,3,-0.043,1.635,10.172,4,-0.030,0.021,0.074
972161.06126,3,-0.041,1.630,10.189,4,-0.019,0.028,0.077
972161.06247,3,-0.033,1.635,10.196,4,-0.011,0.039,0.078
972161.06369,3,-0.024,1.642,10.199,4,0.004,0.045,0.083
972161.06491,3,-0.024,1.642,10.196,4,0.014,0.053,0.086
972161.06612,3,-0.022,1.645,10.192,4,0.023,0.062,0.092,5,-10.538,-30.938,8.438
972161.06734,3,-0.014,1.647,10.194,4,0.033,0.067,0.096
972161.06855,3,-0.007,1.650,10.204,4,0.041,0.075,0.099
972161.06977,3,-0.005,1.652,10.208,4,0.052,0.083,0.103
972161.07098,3,-0.007,1.652,10.211,4,0.063,0.089,0.106
972161.07220,3,0.007,1.647,10.211,4,0.072,0.093,0.111
972161.07341,3,0.026,1.647,10.208,4,0.080,0.100,0.115
972161.07463,3,0.038,1.645,10.211,4,0.091,0.107,0.118
972161.07584,3,0.048,1.635,10.208,4,0.097,0.113,0.119
972161.07706,3,0.057,1.623,10.208,5,-10.575,-31.163,8.344
972161.07827,3,0.065,1.611,10.206,4,0.115,0.122,0.127
972161.07949,3,0.062,1.602,10.192
972161.08070,3,0.057,1.602,10.184,4,0.126,0.128,0.134
972161.08192,3,0.060,1.602,10.187,4,0.132,0.131,0.135
972161.08313,3,0.072,1.602,10.187,4,0.138,0.131,0.138
972161.08435,3,0.081,1.592,10.182,4,0.138,0.134,0.143
972161.08557,3,0.086,1.578,10.182,4,0.140,0.135,0.142
972161.08678,3,0.093,1.566,10.177,4,0.144,0.134,0.147,5,-10.594,-31.538,8.250
972161.08800,3,0.108,1.539,10.175
972161.08921,3,0.132,1.504,10.172,4,0.144,0.132,0.149
972161.09043,3,0.141,1.477,10.158,4,0.143,0.133,0.151
972161.09164,3,0.148,1.461,10.151
972161.09286,3,0.160,1.427,10.146,4,0.144,0.126,0.150
972161.09407,3,0.165,1.400,10.144
972161.09529,3,0.170,1.386,10.144,4,0.140,0.122,0.148
972161.09650,3,0.170,1.355,10.129,4,0.138,0.115,0.146,5,-10.538,-31.538,8.194
972161.09772,3,0.163,1.321,10.108,4,0.136,0.115,0.145
972161.09893,3,0.160,1.290,10.089,4,0.134,0.112,0.139
972161.10015,3,0.165,1.269,10.070,4,0.132,0.107,0.138
972161.10136,3,0.175,1.252,10.065,4,0.126,0.106,0.132
972161.10258,3,0.179,1.223,10.062,4,0.123,0.101,0.125
972161.10380,3,0.187,1.192,10.058
972161.10501,3,0.196,1.166,10.055,4,0.119,0.094,0.118
972161.10623,3,0.199,1.140,10.050,4,0.111,0.089,0.108
972161.10744,3,0.196,1.120,10.043,4,0.106,0.086,0.100,5,-10.519,-31.613,8.231
972161.10866,3,0.201,1.099,10.038,4,0.103,0.079,0.092
972161.10987,3,0.196,1.075,10.041,4,0.100,0.072,0.089
972161.11109,3,0.184,1.051,10.043,4,0.095,0.069,0.082
972161.11230,3,0.177,1.037,10.048,4,0.089,0.065,0.072
972161.11352,3,0.163,1.020,10.048,4,0.088,0.061,0.062
972161.11473,3,0.153,0.998,10.053,4,0.085,0.055,0.057
972161.11595,3,0.132,0.977,10.058,4,0.081,0.051,0.047
972161.11716,3,0.110,0.960,10.062,4,0.077,0.042,0.038,5,-10.388,-31.275,7.894
972161.11838,3,0.091,0.943,10.079
972161.11959,3,0.072,0.919,10.101,4,0.077,0.036,0.030
972161.12081,3,0.060,0.891,10.110,4,0.067,0.020,0.011
972161.12202,3,0.053,0.862,10.120
972161.12324,3,0.045,0.843,10.132,4,0.061,0.016,0.003
972161.12446,3,0.038,0.835,10.141,4,0.060,0.005,-0.005
972161.12567,3,0.033,0.819,10.151,4,0.057,-0.003,-0.012
972161.12689,3,0.024,0.792,10.149,4,0.050,-0.017,-0.025,5,-10.369,-31.163,7.931
972161.12810,3,-0.002,0.783,10.132,4,0.050,-0.025,-0.035
972161.12932,3,-0.026,0.776,10.115
972161.13053,3,-0.045,0.768,10.103,4,0.052,-0.034,-0.040
972161.13175,3,-0.065,0.759,10.094,4,0.052,-0.041,-0.057
972161.13296,3,-0.079,0.749,10.079,4,0.052,-0.045,-0.065
972161.13418,3,-0.108,0.742,10.062
972161.13539,3,-0.144,0.740,10.041,4,0.050,-0.049,-0.079
972161.13661,3,-0.175,0.744,10.022,4,0.052,-0.049,-0.083
972161.13782,3,-0.194,0.740,10.003,4,0.052,-0.053,-0.087
972161.13904,3,-0.220,0.735,9.979,4,0.054,-0.051,-0.094,5,-10.331,-31.031,8.100
972161.14025,3,-0.256,0.730,9.957,4,0.055,-0.042,-0.107
972161.14147,3,-0.283,0.735,9.938
972161.14269,3,-0.299,0.754,9.919,4,0.059,-0.041,-0.111
972161.14390,3,-0.316,0.749,9.902,4,0.059,-0.038,-0.118
972161.14512,3,-0.326,0.730,9.885,4,0.061,-0.032,-0.126
972161.14633,3,-0.340,0.725,9.876,4,0.064,-0.027,-0.132,5,-10.163,-31.031,7.950
972161.14755,3,-0.345,0.737,9.873,4,0.064,-0.024,-0.135
972161.14876,3,-0.345,0.742,9.876,4,0.064,-0.021,-0.144
972161.14998,3,-0.340,0.742,9.878,4,0.064,-0.019,-0.149
972161.15119,3,-0.328,0.747,9.885
972161.15241,3,-0.316,0.768,9.902,4,0.067,-0.018,-0.152
972161.15362,3,-0.304,0.785,9.916,4,0.064,-0.016,-0.156
972161.15484,3,-0.297,0.785,9.919,4,0.067,-0.016,-0.163
972161.15605,3,-0.309,0.792,9.912,4,0.065,-0.014,-0.167,5,-10.144,-30.806,8.100
972161.15727,3,-0.323,0.811,9.916,4,0.067,-0.015,-0.167
972161.15848,3,-0.331,0.828,9.919,4,0.069,-0.015,-0.168
972161.15970,3,-0.331,0.843,9.912
972161.16092,3,-0.319,0.850,9.914,4,0.072,-0.011,-0.171
972161.16213,3,-0.297,0.845,9.919
972161.16335,3,-0.270,0.840,9.921,4,0.072,-0.005,-0.173
972161.16456,3,-0.242,0.835,9.919,4,0.074,-0.008,-0.173
972161.16578,3,-0.218,0.819,9.916,4,0.077,-0.011,-0.172
972161.16699,3,-0.208,0.807,9.907,4,0.077,-0.008,-0.174,5,-10.125,-30.375,8.250
972161.16821,3,-0.196,0.807,9.902,4,0.078,-0.007,-0.173
972161.16942,3,-0.175,0.807,9.900,4,0.078,-0.005,-0.174
972161.17064,3,-0.160,0.811,9.895
972161.17185,3,-0.151,0.819,9.897,4,0.077,0.001,-0.178
972161.17307,3,-0.127,0.816,9.902,4,0.076,0.001,-0.179
972161.17428,3,-0.096,0.809,9.900,4,0.074,0.007,-0.180
972161.17550,3,-0.060,0.807,9.895,4,0.074,0.008,-0.181
972161.17671,3,-0.031,0.814,9.897,4,0.074,0.008,-0.183,5,-10.125,-30.413,8.400
972161.17793,3,-0.017,0.819,9.907,4,0.072,0.014,-0.184
972161.17914,3,-0.002,0.816,9.909
972161.18036,3,0.014,0.821,9.904,4,0.067,0.016,-0.184
972161.18158,3,0.031,0.831,9.900,4,0.065,0.017,-0.185
972161.18279,3,0.053,0.831,9.895
972161.18401,3,0.069,0.833,9.900,4,0.063,0.021,-0.185
972161.18522,3,0.084,0.843,9.909,4,0.053,0.023,-0.188
972161.18644,3,0.100,0.852,9.919,4,0.052,0.023,-0.191,5,-10.144,-30.338,8.419
972161.18765,3,0.110,0.852,9.919,4,0.045,0.027,-0.194
972161.18887,3,0.117,0.848,9.924,4,0.036,0.028,-0.192
972161.19008,3,0.134,0.848,9.933
972161.19130,3,0.146,0.852,9.940,4,0.024,0.027,-0.199
972161.19251,3,0.141,0.845,9.952,4,0.022,0.026,-0.197
972161.19373,3,0.127,0.831,9.969,4,0.012,0.025,-0.206
972161.19494,3,0.127,0.811,9.991
972161.19616,3,0.124,0.795,10.017,4,-0.000,0.020,-0.204,5,-9.938,-30.581,8.625
972161.19737,3,0.110,0.776,10.043,4,-0.010,0.020,-0.210
972161.19859,3,0.112,0.759,10.070
972161.19981,3,0.117,0.742,10.089,4,-0.030,0.015,-0.212
972161.20102,3,0.120,0.718,10.108
972161.20224,3,0.124,0.694,10.134,4,-0.043,0.014,-0.217
972161.20345,3,0.115,0.673,10.170,4,-0.054,0.009,-0.217
972161.20467,3,0.100,0.646,10.199,4,-0.074,0.004,-0.226
972161.20588,3,0.086,0.615,10.218,4,-0.086,0.003,-0.226
972161.20710,3,0.074,0.582,10.244,5,-9.919,-30.694,8.644
972161.20831,3,0.074,0.553,10.275,4,-0.109,-0.001,-0.234
972161.20953,3,0.067,0.529,10.306,4,-0.123,0.001,-0.237
972161.21074,3,0.048,0.505,10.318
972161.21196,3,0.038,0.491,10.330,4,-0.153,0.004,-0.243
972161.21317,3,0.031,0.467,10.366,4,-0.162,0.004,-0.247
972161.21439,3,0.017,0.431,10.412,4,-0.177,0.010,-0.250
972161.21560,3,0.002,0.405,10.448,4,-0.194,0.019,-0.251
972161.21682,3,-0.005,0.376,10.489,5,-9.825,-30.881,8.606
972161.21803,3,-0.024,0.352,10.539,4,-0.218,0.028,-0.256
972161.21925,3,-0.036,0.326,10.587
972161.22047,3,-0.036,0.295,10.627,4,-0.247,0.042,-0.261
972161.22168,3,-0.045,0.268,10.670,4,-0.258,0.048,-0.269
972161.22290,3,-0.067,0.244,10.728,4,-0.274,0.056,-0.268
972161.22411,3,-0.098,0.218,10.778,4,-0.287,0.062,-0.270
972161.22533,3,-0.120,0.187,10.824,4,-0.300,0.068,-0.273
972161.22654,3,-0.132,0.172,10.879,4,-0.312,0.075,-0.275,5,-9.731,-30.938,8.550
972161.22776,3,-0.144,0.163,10.936,4,-0.323,0.083,-0.280
972161.22897,3,-0.170,0.153,10.994,4,-0.333,0.088,-0.283
972161.23019,3,-0.199,0.151,11.049,4,-0.343,0.092,-0.286
972161.23140,3,-0.220,0.134,11.104,4,-0.357,0.101,-0.287
972161.23262,3,-0.246,0.122,11.154,4,-0.363,0.105,-0.289
972161.23383,3,-0.266,0.120,11.202
972161.23505,3,-0.285,0.120,11.240,4,-0.381,0.113,-0.290
972161.23626,3,-0.309,0.117,11.281,4,-0.384,0.116,-0.289,5,-9.788,-30.881,8.456
972161.23748,3,-0.342,0.110,11.324
972161.23870,3,-0.376,0.112,11.362,4,-0.397,0.127,-0.295
972161.23991,3,-0.395,0.117,11.401,4,-0.398,0.129,-0.294
972161.24113,3,-0.412,0.117,11.434,4,-0.402,0.133,-0.292
972161.24234,3,-0.438,0.120,11.468,4,-0.400,0.134,-0.295
972161.24356,3,-0.462,0.122,11.496
972161.24477,3,-0.481,0.120,11.521,4,-0.403,0.142,-0.297
972161.24599,3,-0.496,0.112,11.537,4,-0.399,0.141,-0.295
972161.24720,3,-0.517,0.112,11.549,4,-0.393,0.152,-0.298,5,-9.769,-31.088,8.531
972161.24842,3,-0.529,0.115,11.566,4,-0.389,0.155,-0.295
972161.24963,3,-0.532,0.122,11.576,4,-0.382,0.158,-0.294
972161.25085,3,-0.539,0.129,11.580
972161.25206,3,-0.548,0.134,11.590,4,-0.375,0.159,-0.295
972161.25328,3,-0.555,0.144,11.597,4,-0.361,0.160,-0.296
972161.25449,3,-0.551,0.146,11.602,4,-0.338,0.166,-0.295
972161.25571,3,-0.541,0.141,11.602
972161.25692,3,-0.541,0.141,11.592,4,-0.305,0.171,-0.292,5,-9.675,-31.088,8.381
972161.25814,3,-0.551,0.146,11.571,4,-0.284,0.175,-0.293
972161.25936,3,-0.555,0.160,11.552,4,-0.267,0.175,-0.290
972161.26057,3,-0.555,0.175,11.528,4,-0.247,0.180,-0.291
972161.26179,3,-0.541,0.194,11.492,4,-0.225,0.180,-0.289
972161.26300,3,-0.520,0.208,11.456,4,-0.201,0.180,-0.287
972161.26422,3,-0.503,0.218,11.410,4,-0.179,0.183,-0.286
972161.26543,3,-0.493,0.230,11.365,4,-0.152,0.182,-0.284
972161.26665,3,-0.479,0.232,11.334,4,-0.128,0.181,-0.280,5,-9.656,-31.181,8.325
972161.26786,3,-0.465,0.230,11.295
972161.26908,3,-0.462,0.242,11.238,4,-0.070,0.178,-0.276
972161.27029,3,-0.453,0.254,11.168,4,-0.040,0.177,-0.274
972161.27151,3,-0.438,0.263,11.104,4,-0.011,0.176,-0.273
972161.27272,3,-0.433,0.273,11.039,4,0.020,0.171,-0.270
972161.27394,3,-0.419,0.283,10.970,4,0.051,0.167,-0.267
972161.27515,3,-0.398,0.292,10.895,4,0.084,0.161,-0.264
972161.27637,3,-0.381,0.304,10.816,5,-9.694,-31.275,8.138
972161.27759,3,-0.371,0.314,10.735,4,0.143,0.151,-0.258
972161.27880,3,-0.369,0.326,10.656,4,0.177,0.148,-0.258
972161.28002,3,-0.362,0.338,10.568
972161.28123,3,-0.350,0.354,10.465,4,0.208,0.142,-0.254
972161.28245,3,-0.345,0.359,10.369,4,0.272,0.124,-0.249
972161.28366,3,-0.345,0.371,10.283,4,0.303,0.119,-0.246
972161.28488,3,-0.335,0.388,10.201,4,0.333,0.108,-0.243
972161.28609,3,-0.331,0.395,10.113,4,0.365,0.100,-0.242,5,-9.806,-31.388,7.950
972161.28731,3,-0.331,0.414,10.012,4,0.396,0.091,-0.240
972161.28852,3,-0.321,0.433,9.921,4,0.422,0.080,-0.239
972161.28974,3,-0.309,0.453,9.837,4,0.458,0.067,-0.236
972161.29095,3,-0.297,0.476,9.734,4,0.481,0.056,-0.232
972161.29217,3,-0.290,0.486,9.639,4,0.508,0.045,-0.229
972161.29338,3,-0.280,0.491,9.557,4,0.536,0.028,-0.231
972161.29460,3,-0.263,0.512,9.464,4,0.558,0.015,-0.228
972161.29582,3,-0.254,0.539,9.363,4,0.586,0.000,-0.226
972161.29703,3,-0.246,0.555,9.263,4,0.609,-0.015,-0.228,5,-9.619,-31.088,7.913
972161.29825,3,-0.225,0.579,9.167,4,0.631,-0.034,-0.227
972161.29946,3,-0.211,0.599,9.083,4,0.651,-0.048,-0.224
972161.30068,3,-0.194,0.599,8.992,4,0.670,-0.070,-0.226
972161.30189,3,-0.179,0.610,8.904
972161.30311,3,-0.170,0.625,8.825,4,0.704,-0.106,-0.225
972161.30432,3,-0.153,0.634,8.743
972161.30554,3,-0.146,0.642,8.662,4,0.735,-0.147,-0.227
972161.30675,3,-0.134,0.637,8.573,4,0.744,-0.164,-0.226,5,-9.563,-31.013,8.100
972161.30797,3,-0.110,0.644,8.482,4,0.750,-0.184,-0.228
972161.30918,3,-0.093,0.656,8.399,4,0.760,-0.208,-0.229
972161.31040,3,-0.074,0.658,8.329,4,0.764,-0.227,-0.229
972161.31161,3,-0.045,0.649,8.265,4,0.766,-0.249,-0.230
972161.31283,3,-0.017,0.646,8.207,4,0.768,-0.273,-0.231
972161.31404,3,0.012,0.661,8.159,4,0.770,-0.296,-0.233
972161.31526,3,0.036,0.675,8.109,4,0.766,-0.316,-0.233
972161.31648,3,0.050,0.680,8.061,4,0.764,-0.338,-0.235,5,-9.131,-31.275,8.175
972161.31769,3,0.069,0.685,8.018,4,0.758,-0.364,-0.237
972161.31891,3,0.093,0.682,7.982
972161.32012,3,0.103,0.668,7.946,4,0.742,-0.407,-0.242
972161.32134,3,0.105,0.663,7.917,4,0.730,-0.430,-0.247
972161.32255,3,0.117,0.673,7.891
972161.32377,3,0.136,0.675,7.869,4,0.709,-0.473,-0.253
972161.32498,3,0.160,0.673,7.838,4,0.694,-0.493,-0.256
972161.32620,3,0.182,0.670,7.798,4,0.681,-0.515,-0.257,5,-8.963,-31.050,8.044
972161.32741,3,0.191,0.668,7.767,4,0.665,-0.534,-0.260
972161.32863,3,0.201,0.675,7.743
972161.32984,3,0.206,0.677,7.716,4,0.647,-0.548,-0.264
972161.33106,3,0.208,0.677,7.697,4,0.611,-0.578,-0.272
972161.33227,3,0.218,0.680,7.678,4,0.590,-0.591,-0.275
972161.33349,3,0.223,0.677,7.666,4,0.570,-0.601,-0.278
972161.33471,3,0.232,0.677,7.664
972161.33592,3,0.234,0.680,7.666,4,0.523,-0.621,-0.286,5,-8.944,-31.031,8.231
972161.33714,3,0.242,0.677,7.680,4,0.499,-0.629,-0.287
972161.33835,3,0.270,0.673,7.695,4,0.471,-0.639,-0.290
972161.33957,3,0.290,0.675,7.709,4,0.446,-0.642,-0.293
972161.34078,3,0.299,0.680,7.726,4,0.421,-0.647,-0.294
972161.34200,3,0.302,0.673,7.740,4,0.395,-0.650,-0.300
972161.34321,3,0.302,0.663,7.762
972161.34443,3,0.328,0.651,7.790,4,0.340,-0.651,-0.306
972161.34564,3,0.357,0.642,7.812,4,0.312,-0.649,-0.310
972161.34686,3,0.376,0.630,7.834,4,0.286,-0.649,-0.314,5,-8.963,-31.200,8.438
972161.34807,3,0.407,0.615,7.857,4,0.258,-0.645,-0.317
972161.34929,3,0.431,0.615,7.877
972161.35050,3,0.450,0.622,7.908,4,0.201,-0.630,-0.324
972161.35172,3,0.467,0.620,7.958,4,0.174,-0.627,-0.327
972161.35293,3,0.486,0.618,7.999
972161.35415,3,0.508,0.615,8.023,4,0.120,-0.606,-0.333
972161.35537,3,0.524,0.613,8.056
972161.35658,3,0.539,0.613,8.094,4,0.073,-0.581,-0.336,5,-8.869,-31.200,8.681
972161.35780,3,0.548,0.620,8.123,4,0.047,-0.566,-0.340
972161.35901,3,0.563,0.644,8.150
972161.36023,3,0.589,0.668,8.188,4,-0.002,-0.533,-0.343
972161.36144,3,0.618,0.680,8.231,4,-0.025,-0.517,-0.348
972161.36266,3,0.639,0.685,8.274
972161.36387,3,0.646,0.689,8.324,4,-0.070,-0.478,-0.351
972161.36509,3,0.654,0.701,8.377,4,-0.089,-0.456,-0.353
972161.36630,3,0.666,0.718,8.422,4,-0.107,-0.433,-0.358,5,-8.700,-31.163,8.775
972161.36752,3,0.677,0.725,8.456,4,-0.123,-0.410,-0.360
972161.36873,3,0.689,0.723,8.499,4,-0.141,-0.387,-0.364
972161.36995,3,0.694,0.728,8.544,4,-0.159,-0.363,-0.367
972161.37116,3,0.706,0.737,8.585,4,-0.171,-0.335,-0.369
972161.37238,3,0.733,0.740,8.635,4,-0.185,-0.312,-0.369
972161.37360,3,0.747,0.744,8.690
972161.37481,3,0.747,0.747,8.736,4,-0.205,-0.258,-0.374
972161.37603,3,0.752,0.749,8.782,4,-0.216,-0.230,-0.380,5,-9.038,-31.313,8.963
972161.37724,3,0.752,0.749,8.822
972161.37846,3,0.747,0.761,8.875,4,-0.233,-0.173,-0.383
972161.37967,3,0.740,0.778,8.942
972161.38089,3,0.744,0.795,9.002,4,-0.241,-0.120,-0.388
972161.38210,3,0.759,0.802,9.050,4,-0.247,-0.091,-0.392
972161.38332,3,0.768,0.807,9.102,4,-0.250,-0.065,-0.395
972161.38453,3,0.768,0.811,9.155,4,-0.251,-0.038,-0.398
972161.38575,3,0.761,0.809,9.203,4,-0.254,-0.008,-0.402
972161.38696,3,0.759,0.804,9.246,4,-0.255,0.016,-0.403,5,-8.944,-31.313,9.075
972161.38818,3,0.756,0.800,9.284,4,-0.254,0.042,-0.405
972161.38939,3,0.752,0.804,9.320,4,-0.258,0.065,-0.409
972161.39061,3,0.747,0.809,9.359,4,-0.256,0.087,-0.409
972161.39183,3,0.749,0.804,9.395,4,-0.257,0.111,-0.413
972161.39304,3,0.735,0.802,9.428,4,-0.256,0.132,-0.413
972161.39426,3,0.713,0.807,9.473,4,-0.252,0.155,-0.416
972161.39547,3,0.692,0.811,9.519,4,-0.256,0.174,-0.418
972161.39669,3,0.661,0.814,9.555,4,-0.252,0.192,-0.418,5,-9.169,-31.125,9.169
972161.39790,3,0.642,0.807,9.584,4,-0.256,0.215,-0.418
972161.39912,3,0.622,0.790,9.619,4,-0.254,0.235,-0.419
972161.40033,3,0.601,0.768,9.648,4,-0.253,0.252,-0.417
972161.40155,3,0.584,0.747,9.672,4,-0.253,0.269,-0.418
972161.40276,3,0.553,0.733,9.701,4,-0.251,0.288,-0.418
972161.40398,3,0.527,0.723,9.730,4,-0.254,0.305,-0.417
972161.40519,3,0.505,0.709,9.756,4,-0.253,0.321,-0.415
972161.40641,3,0.484,0.685,9.780,4,-0.252,0.334,-0.415,5,-8.981,-31.463,9.469
972161.40762,3,0.462,0.663,9.808,4,-0.253,0.349,-0.410
972161.40884,3,0.443,0.642,9.845
972161.41005,3,0.426,0.618,9.881,4,-0.256,0.375,-0.408
972161.41127,3,0.409,0.599,9.914,4,-0.258,0.385,-0.406
972161.41249,3,0.388,0.577,9.945,4,-0.259,0.393,-0.405
972161.41370,3,0.371,0.551,9.981,4,-0.259,0.404,-0.400
972161.41492,3,0.364,0.529,10.027,4,-0.261,0.412,-0.399
972161.41613,3,0.352,0.512,10.060,4,-0.265,0.417,-0.396,5,-8.850,-31.556,9.319
972161.41735,3,0.328,0.498,10.089,4,-0.269,0.423,-0.393
972161.41856,3,0.302,0.486,10.132,4,-0.267,0.427,-0.391
972161.41978,3,0.287,0.472,10.177,4,-0.272,0.433,-0.386
972161.42099,3,0.266,0.455,10.206
972161.42221,3,0.239,0.443,10.230,4,-0.272,0.437,-0.382
972161.42342,3,0.213,0.436,10.271,4,-0.280,0.437,-0.377
972161.42464,3,0.182,0.433,10.309,4,-0.281,0.437,-0.369
972161.42585,3,0.156,0.431,10.340,4,-0.281,0.436,-0.367
972161.42707,3,0.129,0.424,10.378,4,-0.285,0.434,-0.361,5,-8.550,-31.481,9.375
972161.42828,3,0.103,0.417,10.412,4,-0.284,0.427,-0.355
972161.42950,3,0.086,0.405,10.453,4,-0.288,0.427,-0.350
972161.43072,3,0.072,0.388,10.501,4,-0.291,0.421,-0.347
972161.43193,3,0.055,0.376,10.546
972161.43315,3,0.026,0.383,10.589,4,-0.294,0.410,-0.338
972161.43436,3,0.002,0.383,10.632,4,-0.295,0.403,-0.330
972161.43558,3,-0.017,0.374,10.666
972161.43679,3,-0.041,0.366,10.699,4,-0.298,0.382,-0.323,5,-8.381,-31.294,9.375
972161.43801,3,-0.055,0.376,10.735,4,-0.296,0.370,-0.316
972161.43922,3,-0.060,0.381,10.766,4,-0.297,0.359,-0.310
972161.44044,3,-0.089,0.369,10.802,4,-0.298,0.350,-0.304
972161.44165,3,-0.124,0.354,10.836,4,-0.297,0.337,-0.298
972161.44287,3,-0.141,0.347,10.862,4,-0.295,0.327,-0.292
972161.44408,3,-0.160,0.342,10.883,4,-0.298,0.312,-0.284
972161.44530,3,-0.187,0.345,10.895,4,-0.298,0.300,-0.282
972161.44651,3,-0.203,0.340,10.912,4,-0.292,0.287,-0.275,5,-8.175,-31.238,9.225
972161.44773,3,-0.215,0.328,10.934
972161.44894,3,-0.237,0.319,10.968,4,-0.291,0.275,-0.268
972161.45016,3,-0.263,0.311,10.994,4,-0.289,0.265,-0.263
972161.45138,3,-0.280,0.316,11.011,4,-0.287,0.251,-0.256
972161.45259,3,-0.280,0.311,11.035,4,-0.278,0.224,-0.245
972161.45381,3,-0.270,0.292,11.049,4,-0.283,0.214,-0.241
972161.45502,3,-0.270,0.280,11.056,4,-0.275,0.202,-0.233
972161.45624,3,-0.299,0.268,11.068,4,-0.271,0.189,-0.229,5,-7.800,-31.406,9.206
972161.45745,3,-0.323,0.251,11.085,4,-0.266,0.177,-0.223
972161.45867,3,-0.331,0.239,11.094,4,-0.259,0.166,-0.217
972161.45988,3,-0.331,0.239,11.109,4,-0.253,0.155,-0.212
972161.46110,3,-0.328,0.244,11.121,4,-0.246,0.141,-0.204
972161.46231,3,-0.328,0.256,11.118,4,-0.239,0.127,-0.198
972161.46353,3,-0.326,0.254,11.121,4,-0.231,0.119,-0.196
972161.46474,3,-0.331,0.246,11.130,4,-0.222,0.104,-0.189
972161.46596,3,-0.340,0.258,11.133,5,-7.500,-31.613,9.225
972161.46717,3,-0.350,0.268,11.130,4,-0.205,0.085,-0.177
972161.46839,3,-0.362,0.270,11.116,4,-0.195,0.075,-0.169
972161.46961,3,-0.364,0.270,11.099,4,-0.180,0.063,-0.166
972161.47082,3,-0.357,0.268,11.090
972161.47204,3,-0.340,0.278,11.075,4,-0.155,0.045,-0.152
972161.47325,3,-0.319,0.297,11.056,4,-0.145,0.037,-0.145
972161.47447,3,-0.323,0.302,11.032
972161.47568,3,-0.326,0.307,11.006,4,-0.119,0.018,-0.132
972161.47690,3,-0.316,0.316,10.972,4,-0.106,0.010,-0.128,5,-7.238,-31.688,9.169
972161.47811,3,-0.307,0.323,10.938,4,-0.091,0.005,-0.123
972161.47933,3,-0.295,0.335,10.905,4,-0.077,0.001,-0.116
972161.48054,3,-0.285,0.352,10.867
972161.48176,3,-0.278,0.381,10.828,4,-0.048,-0.015,-0.107
972161.48297,3,-0.275,0.402,10.795,4,-0.028,-0.021,-0.100
972161.48419,3,-0.251,0.424,10.759
972161.48540,3,-0.230,0.429,10.718,4,0.003,-0.030,-0.090
972161.48662,3,-0.208,0.412,10.666,5,-7.331,-31.781,8.925
972161.48784,3,-0.187,0.412,10.623,4,0.037,-0.038,-0.079
972161.48905,3,-0.167,0.419,10.575,4,0.055,-0.043,-0.074
972161.49027,3,-0.165,0.424,10.522,4,0.073,-0.045,-0.069
972161.49148,3,-0.158,0.431,10.486,4,0.088,-0.050,-0.068
972161.49270,3,-0.124,0.441,10.448
972161.49391,3,-0.103,0.448,10.398,4,0.121,-0.055,-0.060
972161.49513,3,-0.093,0.438,10.350,4,0.140,-0.063,-0.060
972161.49634,3,-0.065,0.443,10.306,4,0.158,-0.063,-0.055,5,-6.975,-31.781,9.169
972161.49756,3,-0.043,0.462,10.256,4,0.175,-0.067,-0.054
972161.49877,3,-0.029,0.472,10.196
972161.49999,3,-0.012,0.479,10.132,4,0.188,-0.068,-0.055
972161.50120,3,-0.002,0.488,10.070,4,0.225,-0.070,-0.052
972161.50242,3,0.000,0.486,10.019,4,0.237,-0.071,-0.050
972161.50363,3,0.017,0.486,9.960,4,0.253,-0.070,-0.047
972161.50485,3,0.033,0.488,9.895,4,0.267,-0.070,-0.049
972161.50606,3,0.041,0.488,9.830,5,-7.031,-31.875,9.019
972161.50728,3,0.055,0.493,9.753,4,0.292,-0.071,-0.045
972161.50850,3,0.065,0.496,9.679,4,0.305,-0.067,-0.047
972161.50971,3,0.074,0.505,9.612,4,0.312,-0.063,-0.047
972161.51093,3,0.096,0.510,9.548,4,0.323,-0.062,-0.047
972161.51214,3,0.110,0.503,9.485,4,0.333,-0.060,-0.045
972161.51336,3,0.112,0.496,9.418,4,0.340,-0.054,-0.049
972161.51457,3,0.124,0.493,9.356,4,0.346,-0.051,-0.048
972161.51579,3,0.136,0.493,9.308,4,0.352,-0.049,-0.049
972161.51700,3,0.136,0.498,9.255,5,-6.975,-32.138,8.738
972161.51822,3,0.146,0.491,9.198,4,0.363,-0.048,-0.050
972161.51943,3,0.158,0.486,9.148,4,0.366,-0.045,-0.050
972161.52065,3,0.158,0.486,9.090,4,0.364,-0.046,-0.052
972161.52186,3,0.163,0.488,9.038,4,0.364,-0.042,-0.052
972161.52308,3,0.167,0.500,9.004
972161.52429,3,0.177,0.515,8.964,4,0.359,-0.039,-0.053
972161.52551,3,0.189,0.532,8.913,4,0.358,-0.038,-0.054
972161.52673,3,0.189,0.548,8.856,5,-6.750,-32.213,8.794
972161.52794,3,0.187,0.558,8.801,4,0.353,-0.042,-0.052
972161.52916,3,0.194,0.572,8.753
972161.53037,3,0.199,0.587,8.710,4,0.341,-0.040,-0.055
972161.53159,3,0.203,0.587,8.669
972161.53280,3,0.208,0.589,8.616,4,0.330,-0.039,-0.054
972161.53402,3,0.201,0.603,8.561,4,0.320,-0.036,-0.051
972161.53523,3,0.191,0.620,8.516
972161.53645,3,0.187,0.620,8.475,4,0.301,-0.031,-0.051,5,-6.675,-32.025,8.794
972161.53766,3,0.189,0.622,8.439,4,0.290,-0.029,-0.048
972161.53888,3,0.194,0.637,8.410,4,0.279,-0.027,-0.047
972161.54009,3,0.196,0.656,8.377,4,0.269,-0.026,-0.049
972161.54131,3,0.189,0.675,8.351
972161.54252,3,0.187,0.689,8.329,4,0.246,-0.023,-0.046
972161.54374,3,0.196,0.706,8.312,4,0.232,-0.019,-0.046
972161.54495,3,0.196,0.721,8.300
972161.54617,3,0.196,0.742,8.286,4,0.205,-0.018,-0.042,5,-6.544,-31.744,8.663
972161.54739,3,0.206,0.764,8.265
972161.54860,3,0.203,0.783,8.250,4,0.192,-0.015,-0.039
972161.54982,3,0.199,0.783,8.241,4,0.176,-0.012,-0.039
972161.55103,3,0.211,0.785,8.221,4,0.161,-0.013,-0.037
972161.55225,3,0.208,0.807,8.205,4,0.130,-0.008,-0.032
972161.55346,3,0.203,0.833,8.181
972161.55468,3,0.218,0.843,8.162,4,0.118,-0.003,-0.032
972161.55589,3,0.227,0.850,8.154,4,0.086,0.004,-0.028,5,-6.356,-31.669,8.438
972161.55711,3,0.227,0.860,8.150,4,0.070,0.010,-0.029
972161.55832,3,0.230,0.884,8.159,4,0.055,0.014,-0.027
972161.55954,3,0.234,0.896,8.162
972161.56075,3,0.242,0.905,8.159,4,0.025,0.026,-0.026
972161.56197,3,0.244,0.917,8.162,4,0.012,0.030,-0.024
972161.56318,3,0.244,0.924,8.166,4,-0.003,0.039,-0.023
972161.56440,3,0.261,0.941,8.169,4,-0.017,0.045,-0.024
972161.56562,3,0.280,0.955,8.178,4,-0.032,0.054,-0.024
972161.56683,3,0.297,0.972,8.200,4,-0.045,0.058,-0.025,5,-6.281,-31.594,8.663
972161.56805,3,0.307,0.994,8.212,4,-0.057,0.064,-0.025
972161.56926,3,0.311,1.008,8.219,4,-0.072,0.070,-0.025
972161.57048,3,0.323,1.010,8.229,4,-0.085,0.078,-0.025
972161.57169,3,0.331,1.015,8.250,4,-0.094,0.083,-0.028
972161.57291,3,0.328,1.022,8.269,4,-0.107,0.088,-0.025
972161.57412,3,0.333,1.037,8.284,4,-0.118,0.095,-0.029
972161.57534,3,0.340,1.049,8.308,4,-0.129,0.097,-0.027
972161.57655,3,0.347,1.061,8.339,4,-0.140,0.103,-0.027,5,-6.488,-31.594,8.494
972161.57777,3,0.340,1.070,8.370,4,-0.155,0.109,-0.029
972161.57898,3,0.321,1.070,8.408,4,-0.160,0.114,-0.030
972161.58020,3,0.319,1.068,8.454,4,-0.170,0.116,-0.027
972161.58141,3,0.314,1.073,8.497,4,-0.179,0.120,-0.031
972161.58263,3,0.292,1.075,8.530,4,-0.187,0.124,-0.032
972161.58385,3,0.285,1.080,8.566
972161.58506,3,0.290,1.077,8.600,4,-0.208,0.134,-0.032,5,-6.450,-31.631,8.381
972161.58628,3,0.290,1.063,8.626
972161.58749,3,0.275,1.065,8.657,4,-0.212,0.138,-0.032
972161.58871,3,0.251,1.065,8.693
972161.58992,3,0.232,1.075,8.736,4,-0.217,0.140,-0.030
972161.59114,3,0.220,1.085,8.779,4,-0.227,0.145,-0.030
972161.59235,3,0.208,1.077,8.813,4,-0.231,0.147,-0.027
972161.59357,3,0.196,1.061,8.846,4,-0.236,0.147,-0.025
972161.59478,3,0.184,1.044,8.894,4,-0.237,0.150,-0.027
972161.59600,3,0.167,1.025,8.937,4,-0.241,0.153,-0.022,5,-6.431,-31.463,8.775
972161.59721,3,0.151,1.010,8.975,4,-0.243,0.154,-0.020
972161.59843,3,0.129,0.994,9.019,4,-0.244,0.152,-0.018
972161.59964,3,0.105,0.979,9.066,4,-0.244,0.155,-0.014
972161.60086,3,0.091,0.965,9.109,4,-0.243,0.154,-0.012
972161.60207,3,0.084,0.948,9.150,4,-0.246,0.153,-0.010
972161.60329,3,0.077,0.948,9.188
972161.60451,3,0.067,0.953,9.232,4,-0.244,0.152,-0.000
972161.60572,3,0.050,0.953,9.287,4,-0.242,0.151,0.002
972161.60694,3,0.031,0.948,9.330,4,-0.242,0.148,0.009,5,-6.675,-31.538,8.869
972161.60815,3,0.022,0.941,9.373,4,-0.238,0.144,0.011
972161.60937,3,0.019,0.929,9.426,4,-0.236,0.141,0.014
972161.61058,3,0.017,0.912,9.469,4,-0.233,0.136,0.020
972161.61180,3,0.010,0.893,9.507,4,-0.231,0.133,0.023
972161.61301,3,0.007,0.888,9.550,4,-0.225,0.125,0.029
972161.61423,3,0.010,0.903,9.596
972161.61544,3,0.014,0.907,9.641,4,-0.215,0.118,0.034
972161.61666,3,0.012,0.891,9.686,4,-0.208,0.112,0.040,5,-6.619,-31.650,8.888
972161.61787,3,0.002,0.888,9.727,4,-0.204,0.107,0.043
972161.61909,3,0.002,0.891,9.753,4,-0.196,0.099,0.045
972161.62030,3,0.002,0.888,9.770
972161.62152,3,-0.005,0.884,9.785,4,-0.190,0.092,0.051
972161.62274,3,0.000,0.876,9.808,4,-0.182,0.081,0.055
972161.62395,3,0.000,0.881,9.830,4,-0.172,0.073,0.060
972161.62517,3,-0.014,0.893,9.847,4,-0.165,0.067,0.063
972161.62638,3,-0.026,0.903,9.866,4,-0.163,0.061,0.066,5,-6.656,-31.781,8.925
972161.62760,3,-0.029,0.912,9.890,4,-0.153,0.054,0.068
972161.62881,3,-0.019,0.912,9.912
972161.63003,3,-0.014,0.915,9.933,4,-0.142,0.034,0.076
972161.63124,3,-0.022,0.910,9.943,4,-0.136,0.026,0.077
972161.63246,3,-0.038,0.905,9.955,4,-0.126,0.016,0.080
972161.63367,3,-0.036,0.903,9.974
972161.63489,3,-0.022,0.891,9.976,4,-0.120,0.007,0.084
972161.63610,3,-0.017,0.893,9.981,4,-0.112,-0.011,0.089,5,-6.619,-31.913,9.131
972161.63732,3,-0.019,0.886,9.993,4,-0.106,-0.018,0.091
972161.63853,3,-0.019,0.872,10.007,4,-0.100,-0.031,0.094
972161.63975,3,-0.024,0.864,10.019,4,-0.094,-0.039,0.096
972161.64096,3,-0.019,0.850,10.034
972161.64218,3,0.000,0.838,10.046,4,-0.082,-0.057,0.099
972161.64340,3,0.010,0.831,10.048,4,-0.079,-0.065,0.102
972161.64461,3,0.014,0.821,10.043,4,-0.074,-0.073,0.105
972161.64583,3,0.026,0.823,10.038,4,-0.072,-0.079,0.104
972161.64704,3,0.033,0.828,10.041,4,-0.066,-0.088,0.105,5,-6.413,-31.913,8.906
972161.64826,3,0.041,0.823,10.043
972161.64947,3,0.053,0.823,10.041,4,-0.059,-0.095,0.107
972161.65069,3,0.067,0.826,10.034,4,-0.055,-0.101,0.107
972161.65190,3,0.084,0.835,10.024,4,-0.053,-0.104,0.109
972161.65312,3,0.091,0.845,10.019,4,-0.048,-0.113,0.110
972161.65433,3,0.105,0.843,10.017,4,-0.044,-0.116,0.110
972161.65555,3,0.127,0.835,10.017,4,-0.042,-0.119,0.110
972161.65676,3,0.139,0.835,10.012,4,-0.038,-0.122,0.114,5,-6.319,-32.025,8.888
972161.65798,3,0.151,0.848,9.995,4,-0.036,-0.123,0.111
972161.65919,3,0.151,0.862,9.979,4,-0.033,-0.124,0.113
972161.66041,3,0.163,0.862,9.967
972161.66163,3,0.187,0.864,9.962,4,-0.029,-0.128,0.115
972161.66284,3,0.203,0.867,9.957,4,-0.029,-0.123,0.112
972161.66406,3,0.215,0.867,9.955,4,-0.026,-0.122,0.113
972161.66527,3,0.237,0.879,9.940,4,-0.027,-0.124,0.113
972161.66649,3,0.251,0.888,9.919,4,-0.027,-0.123,0.113,5,-6.244,-31.931,8.981
972161.66770,3,0.261,0.876,9.907
972161.66892,3,0.263,0.872,9.893,4,-0.020,-0.127,0.110
972161.67013,3,0.273,0.872,9.878,4,-0.018,-0.122,0.109
972161.67135,3,0.290,0.874,9.873,4,-0.016,-0.121,0.110
972161.67256,3,0.295,0.879,9.864,4,-0.018,-0.119,0.109
972161.67378,3,0.295,0.886,9.847,4,-0.014,-0.118,0.107
972161.67499,3,0.304,0.886,9.830,4,-0.013,-0.117,0.109
972161.67621,3,0.314,0.881,9.811,4,-0.009,-0.116,0.107
972161.67742,3,0.316,0.876,9.799,4,-0.005,-0.112,0.106,5,-6.206,-31.988,8.756
972161.67864,3,0.323,0.881,9.792,4,-0.005,-0.111,0.105
972161.67986,3,0.323,0.896,9.773,4,-0.005,-0.110,0.105
972161.68107,3,0.333,0.903,9.763,4,-0.003,-0.110,0.103
972161.68229,3,0.352,0.903,9.768
972161.68350,3,0.362,0.905,9.765,4,-0.001,-0.110,0.103
972161.68472,3,0.354,0.912,9.746,4,0.002,-0.106,0.101
972161.68593,3,0.345,0.917,9.732,4,0.003,-0.107,0.102
972161.68715,3,0.342,0.910,9.727,5,-6.244,-31.856,8.775
972161.68836,3,0.340,0.910,9.718,4,0.006,-0.106,0.103
972161.68958,3,0.352,0.927,9.710,4,0.012,-0.105,0.102
972161.69079,3,0.376,0.936,9.706,4,0.012,-0.103,0.101
972161.69201,3,0.393,0.941,9.689
972161.69322,3,0.398,0.943,9.679,4,0.015,-0.098,0.100
972161.69444,3,0.407,0.941,9.679,4,0.017,-0.097,0.099
972161.69565,3,0.419,0.939,9.682,4,0.020,-0.097,0.099
972161.69687,3,0.431,0.936,9.684,4,0.023,-0.095,0.096,5,-6.188,-31.688,8.813
972161.69808,3,0.441,0.934,9.689,4,0.027,-0.092,0.096
972161.69930,3,0.445,0.936,9.698,4,0.029,-0.089,0.095
972161.70052,3,0.457,0.946,9.703
972161.70173,3,0.474,0.955,9.708,4,0.035,-0.087,0.092
972161.70295,3,0.488,0.963,9.710
972161.70416,3,0.496,0.965,9.713,4,0.041,-0.086,0.088
972161.70538,3,0.496,0.970,9.720,4,0.045,-0.081,0.087
972161.70659,3,0.496,0.970,9.722,4,0.044,-0.078,0.083,5,-6.506,-31.575,8.888
972161.70781,3,0.496,0.965,9.720,4,0.048,-0.077,0.082
972161.70902,3,0.496,0.970,9.720
972161.71024,3,0.496,0.977,9.720,4,0.054,-0.071,0.080
972161.71145,3,0.503,0.991,9.718,4,0.058,-0.068,0.076
972161.71267,3,0.505,1.003,9.710,4,0.061,-0.067,0.076
972161.71388,3,0.503,1.008,9.703,4,0.061,-0.065,0.074
972161.71510,3,0.508,1.013,9.701,4,0.065,-0.061,0.072
972161.71631,3,0.512,1.020,9.706,4,0.067,-0.060,0.070,5,-6.694,-31.444,9.056
972161.71753,3,0.505,1.037,9.710,4,0.072,-0.057,0.071
972161.71875,3,0.500,1.053,9.715,4,0.072,-0.056,0.067
972161.71996,3,0.503,1.065,9.725,4,0.075,-0.053,0.067
972161.72118,3,0.508,1.068,9.727,4,0.078,-0.054,0.070
972161.72239,3,0.505,1.073,9.722,4,0.081,-0.052,0.068
972161.72361,3,0.496,1.082,9.722,4,0.080,-0.050,0.065
972161.72482,3,0.486,1.087,9.713,4,0.082,-0.050,0.068
972161.72604,3,0.472,1.108,9.706,4,0.086,-0.047,0.067
972161.72725,3,0.467,1.123,9.710,4,0.088,-0.048,0.069,5,-6.675,-31.144,9.038
972161.72847,3,0.467,1.116,9.713,4,0.090,-0.048,0.071
972161.72968,3,0.472,1.104,9.703,4,0.089,-0.050,0.075
972161.73090,3,0.484,1.106,9.691,4,0.094,-0.048,0.072
972161.73211,3,0.484,1.116,9.686,4,0.091,-0.049,0.076
972161.73333,3,0.481,1.118,9.672
972161.73454,3,0.486,1.111,9.655,4,0.092,-0.048,0.078
972161.73576,3,0.481,1.097,9.648,4,0.095,-0.048,0.079
972161.73697,3,0.484,1.099,9.655,4,0.094,-0.049,0.082,5,-6.638,-30.956,9.225
972161.73819,3,0.491,1.106,9.648
972161.73941,3,0.498,1.101,9.639,4,0.096,-0.051,0.085
972161.74062,3,0.503,1.097,9.636,4,0.093,-0.051,0.088
972161.74184,3,0.517,1.094,9.629,4,0.094,-0.052,0.089
972161.74305,3,0.532,1.099,9.624
972161.74427,3,0.534,1.111,9.619,4,0.091,-0.054,0.091
972161.74548,3,0.524,1.104,9.615,4,0.089,-0.053,0.091
972161.74670,3,0.522,1.089,9.622,4,0.090,-0.057,0.095,5,-6.713,-31.050,9.431
972161.74791,3,0.524,1.087,9.627,4,0.087,-0.056,0.097
972161.74913,3,0.524,1.087,9.622,4,0.086,-0.057,0.099
972161.75034,3,0.543,1.087,9.622,4,0.084,-0.060,0.103
972161.75156,3,0.558,1.085,9.627,4,0.081,-0.060,0.105
972161.75277,3,0.548,1.077,9.634,4,0.075,-0.062,0.108
972161.75399,3,0.541,1.065,9.627
972161.75520,3,0.541,1.068,9.619,4,0.074,-0.059,0.111
972161.75642,3,0.541,1.080,9.617,4,0.069,-0.058,0.116,5,-6.731,-30.900,9.619
972161.75764,3,0.543,1.085,9.612,4,0.067,-0.057,0.115
972161.75885,3,0.541,1.089,9.612,4,0.065,-0.058,0.114
972161.76007,3,0.546,1.094,9.622,4,0.061,-0.055,0.118
972161.76128,3,0.551,1.101,9.631,4,0.061,-0.052,0.121
972161.76250,3,0.543,1.104,9.641,4,0.059,-0.051,0.123
972161.76371,3,0.539,1.099,9.648,4,0.052,-0.047,0.123
972161.76493,3,0.541,1.092,9.651,4,0.051,-0.046,0.124
972161.76614,3,0.546,1.087,9.643,4,0.045,-0.041,0.126,5,-6.600,-30.956,9.581
972161.76736,3,0.551,1.089,9.636
972161.76857,3,0.563,1.089,9.639,4,0.039,-0.035,0.129
972161.76979,3,0.560,1.089,9.639,4,0.038,-0.030,0.131
972161.77100,3,0.558,1.097,9.636,4,0.031,-0.024,0.132
972161.77222,3,0.567,1.101,9.641,4,0.031,-0.024,0.135
972161.77343,3,0.567,1.097,9.648,4,0.027,-0.020,0.135
972161.77465,3,0.567,1.094,9.653,4,0.025,-0.018,0.138
972161.77587,3,0.575,1.089,9.655,4,0.022,-0.013,0.139
972161.77708,3,0.579,1.082,9.655,4,0.018,-0.010,0.140,5,-6.731,-31.106,9.619
972161.77830,3,0.575,1.082,9.665,4,0.017,-0.008,0.141
972161.77951,3,0.572,1.085,9.674,4,0.012,-0.002,0.140
972161.78073,3,0.565,1.085,9.686,4,0.011,0.001,0.144
972161.78194,3,0.563,1.087,9.694,4,0.007,0.006,0.143
972161.78316,3,0.563,1.082,9.696,4,0.007,0.008,0.144
972161.78437,3,0.565,1.073,9.701,4,0.004,0.012,0.146
972161.78559,3,0.560,1.070,9.698,4,0.004,0.014,0.144
972161.78680,3,0.551,1.068,9.708,4,-0.002,0.022,0.145,5,-6.694,-31.294,9.469
972161.78802,3,0.546,1.065,9.720,4,-0.002,0.023,0.146
972161.78923,3,0.536,1.065,9.730,4,-0.003,0.027,0.142
972161.79045,3,0.534,1.058,9.741
972161.79166,3,0.529,1.061,9.756,4,-0.003,0.037,0.144
972161.79288,3,0.520,1.063,9.777,4,-0.004,0.037,0.143
972161.79409,3,0.522,1.061,9.799,4,-0.003,0.037,0.144
972161.79531,3,0.520,1.056,9.818,4,0.000,0.041,0.142
972161.79653,3,0.517,1.056,9.837,5,-6.638,-31.331,9.094
972161.79774,3,0.510,1.056,9.854,4,0.002,0.045,0.141
972161.79896,3,0.496,1.065,9.866,4,0.002,0.048,0.136
972161.80017,3,0.484,1.075,9.873,4,0.003,0.048,0.135
972161.80139,3,0.474,1.085,9.890
972161.80260,3,0.465,1.097,9.907,4,0.011,0.051,0.130
972161.80382,3,0.448,1.104,9.919,4,0.013,0.051,0.130
972161.80503,3,0.436,1.101,9.931,4,0.019,0.055,0.129
972161.80625,3,0.436,1.099,9.936,4,0.023,0.053,0.127,5,-6.975,-31.481,9.113
972161.80746,3,0.431,1.104,9.936
972161.80868,3,0.419,1.106,9.936,4,0.029,0.053,0.126
972161.80989,3,0.407,1.111,9.938
972161.81111,3,0.395,1.106,9.938,4,0.036,0.057,0.121
972161.81232,3,0.386,1.092,9.940,4,0.047,0.054,0.122
972161.81354,3,0.378,1.085,9.940,4,0.047,0.059,0.115
972161.81476,3,0.381,1.082,9.938
972161.81597,3,0.381,1.077,9.940,4,0.061,0.060,0.115,5,-6.994,-31.538,9.038
972161.81719,3,0.369,1.073,9.948,4,0.064,0.059,0.115
972161.81840,3,0.357,1.065,9.943,4,0.072,0.059,0.115
972161.81962,3,0.357,1.061,9.940
972161.82083,3,0.347,1.058,9.950,4,0.078,0.057,0.112
972161.82205,3,0.323,1.061,9.948,4,0.092,0.055,0.108
972161.82326,3,0.307,1.061,9.940,4,0.097,0.054,0.109
972161.82448,3,0.299,1.058,9.938,4,0.102,0.054,0.108
972161.82569,3,0.292,1.058,9.933,4,0.110,0.051,0.109
972161.82691,3,0.290,1.056,9.933,4,0.117,0.050,0.106,5,-7.013,-31.069,9.056
972161.82812,3,0.287,1.056,9.933,4,0.122,0.051,0.106
972161.82934,3,0.273,1.053,9.928,4,0.130,0.047,0.104
972161.83055,3,0.256,1.044,9.919,4,0.136,0.043,0.103
972161.83177,3,0.239,1.034,9.909,4,0.144,0.042,0.105
972161.83298,3,0.234,1.022,9.900,4,0.148,0.041,0.104
972161.83420,3,0.234,1.013,9.883,4,0.153,0.039,0.099
972161.83542,3,0.223,1.003,9.869,4,0.161,0.034,0.104
972161.83663,3,0.203,0.998,9.864,4,0.170,0.029,0.104,5,-7.088,-31.181,9.263
972161.83785,3,0.196,1.003,9.866,4,0.176,0.029,0.102
972161.83906,3,0.189,1.001,9.871,4,0.181,0.026,0.102
972161.84028,3,0.182,0.991,9.866,4,0.188,0.025,0.101
972161.84149,3,0.177,0.984,9.854,4,0.193,0.020,0.101
972161.84271,3,0.172,0.979,9.845,4,0.196,0.016,0.104
972161.84392,3,0.165,0.979,9.840,4,0.205,0.010,0.104
972161.84514,3,0.165,0.982,9.830,4,0.206,0.010,0.105
972161.84635,3,0.167,0.965,9.813,4,0.213,0.004,0.105,5,-7.144,-31.181,9.263
972161.84757,3,0.156,0.953,9.804,4,0.219,0.001,0.105
972161.84878,3,0.153,0.951,9.804,4,0.224,-0.006,0.107
972161.85000,3,0.144,0.939,9.794,4,0.223,-0.008,0.104
972161.85121,3,0.122,0.929,9.785
972161.85243,3,0.112,0.917,9.785,4,0.232,-0.018,0.107
972161.85365,3,0.108,0.907,9.782,4,0.233,-0.021,0.106
972161.85486,3,0.098,0.907,9.770,4,0.237,-0.025,0.108
972161.85608,3,0.084,0.891,9.756,4,0.239,-0.032,0.110,5,-7.256,-31.069,9.225
972161.85729,3,0.074,0.876,9.744,4,0.239,-0.035,0.108
972161.85851,3,0.062,0.872,9.732,4,0.240,-0.037,0.109
972161.85972,3,0.043,0.864,9.727,4,0.238,-0.040,0.113
972161.86094,3,0.033,0.855,9.718,4,0.239,-0.038,0.111
972161.86215,3,0.038,0.833,9.708,4,0.239,-0.041,0.115
972161.86337,3,0.038,0.821,9.710,4,0.239,-0.046,0.118
972161.86458,3,0.024,0.821,9.710,4,0.232,-0.049,0.116
972161.86580,3,0.012,0.819,9.708,4,0.232,-0.050,0.119
972161.86701,3,0.019,0.814,9.710,4,0.227,-0.051,0.122,5,-7.219,-30.938,9.450
972161.86823,3,0.033,0.814,9.710,4,0.229,-0.057,0.122
972161.86944,3,0.033,0.802,9.713,4,0.225,-0.062,0.128
972161.87066,3,0.029,0.788,9.722,4,0.220,-0.065,0.127
972161.87188,3,0.041,0.783,9.730,4,0.217,-0.070,0.132
972161.87309,3,0.050,0.778,9.730,4,0.207,-0.073,0.130
972161.87431,3,0.057,0.761,9.737,4,0.202,-0.076,0.130
972161.87552,3,0.060,0.742,9.758,4,0.198,-0.078,0.137
972161.87674,3,0.074,0.728,9.773,4,0.189,-0.084,0.137,5,-7.444,-30.825,9.694
972161.87795,3,0.096,0.716,9.789,4,0.182,-0.092,0.137
972161.87917,3,0.103,0.692,9.821,4,0.176,-0.098,0.139
972161.88038,3,0.115,0.663,9.847,4,0.170,-0.104,0.138
972161.88160,3,0.139,0.639,9.871,4,0.159,-0.110,0.138
972161.88281,3,0.167,0.622,9.907,4,0.152,-0.117,0.139
972161.88403,3,0.184,0.606,9.940,4,0.144,-0.126,0.134
972161.88524,3,0.187,0.587,9.967,4,0.135,-0.133,0.137
972161.88646,3,0.199,0.565,9.993,4,0.123,-0.140,0.135,5,-7.275,-30.863,9.750
972161.88767,3,0.206,0.551,10.024,4,0.112,-0.147,0.133
972161.88889,3,0.213,0.543,10.058
972161.89010,3,0.215,0.532,10.077,4,0.102,-0.154,0.132
972161.89132,3,0.213,0.510,10.098,4,0.077,-0.167,0.127
972161.89254,3,0.220,0.486,10.134,4,0.070,-0.172,0.124
972161.89375,3,0.230,0.472,10.158
972161.89497,3,0.239,0.462,10.177,4,0.054,-0.175,0.122
972161.89618,3,0.249,0.438,10.189,4,0.028,-0.180,0.116,5,-7.275,-30.656,9.450
972161.89740,3,0.261,0.414,10.211,4,0.012,-0.179,0.114
972161.89861,3,0.261,0.407,10.237,4,-0.002,-0.177,0.113
972161.89983,3,0.268,0.400,10.263,4,-0.018,-0.176,0.110
972161.90104,3,0.285,0.386,10.297,4,-0.032,-0.176,0.111
972161.90226,3,0.299,0.364,10.333,4,-0.046,-0.173,0.109
972161.90347,3,0.309,0.338,10.371,4,-0.066,-0.170,0.104
972161.90469,3,0.314,0.319,10.407,4,-0.076,-0.169,0.104
972161.90590,3,0.321,0.314,10.438,4,-0.093,-0.169,0.104
972161.90712,3,0.314,0.316,10.467,4,-0.109,-0.164,0.104,5,-7.275,-30.750,9.450
972161.90833,3,0.314,0.309,10.505,4,-0.123,-0.162,0.101
972161.90955,3,0.319,0.297,10.548
972161.91077,3,0.297,0.283,10.582,4,-0.138,-0.158,0.101
972161.91198,3,0.280,0.261,10.613,4,-0.154,-0.153,0.099
972161.91320,3,0.270,0.237,10.651,4,-0.179,-0.145,0.099
972161.91441,3,0.261,0.227,10.704,4,-0.191,-0.137,0.096
972161.91563,3,0.261,0.227,10.752,4,-0.201,-0.135,0.098,5,-7.331,-30.731,9.281
972161.91684,3,0.263,0.213,10.788,4,-0.215,-0.129,0.096
972161.91806,3,0.254,0.199,10.807,4,-0.226,-0.121,0.095
972161.91927,3,0.239,0.199,10.836
972161.92049,3,0.234,0.196,10.876,4,-0.245,-0.107,0.097
972161.92170,3,0.234,0.184,10.912
972161.92292,3,0.227,0.170,10.946,4,-0.250,-0.101,0.094
972161.92413,3,0.213,0.153,10.975,4,-0.258,-0.092,0.095
972161.92535,3,0.201,0.144,10.999,4,-0.265,-0.081,0.095
972161.92656,3,0.189,0.136,11.025,4,-0.268,-0.076,0.095,5,-7.556,-30.525,9.375
972161.92778,3,0.179,0.132,11.049,4,-0.274,-0.065,0.098
972161.92899,3,0.175,0.124,11.068,4,-0.276,-0.049,0.100
972161.93021,3,0.170,0.112,11.092,4,-0.281,-0.037,0.102
972161.93143,3,0.160,0.100,11.118
972161.93264,3,0.141,0.089,11.140,4,-0.278,-0.030,0.103
972161.93386,3,0.122,0.079,11.154,4,-0.277,-0.010,0.106
972161.93507,3,0.117,0.065,11.159,4,-0.270,-0.002,0.107
972161.93629,3,0.115,0.043,11.159,5,-7.406,-30.488,9.469
972161.93750,3,0.110,0.033,11.161,4,-0.267,0.020,0.112
972161.93872,3,0.115,0.019,11.166,4,-0.257,0.031,0.112
972161.93993,3,0.117,0.007,11.171,4,-0.251,0.041,0.112
972161.94115,3,0.115,0.007,11.180
972161.94236,3,0.108,0.012,11.178,4,-0.231,0.059,0.116
972161.94358,3,0.112,0.007,11.173,4,-0.221,0.070,0.119
972161.94479,3,0.124,0.000,11.178,4,-0.209,0.076,0.119
972161.94601,3,0.127,0.002,11.188,4,-0.198,0.084,0.120,5,-7.163,-30.150,9.525
972161.94722,3,0.120,0.014,11.190,4,-0.184,0.092,0.122
972161.94844,3,0.122,0.031,11.192,4,-0.174,0.100,0.122
972161.94966,3,0.124,0.043,11.197,4,-0.161,0.105,0.126
972161.95087,3,0.108,0.053,11.207,4,-0.148,0.107,0.128
972161.95209,3,0.096,0.062,11.200,4,-0.132,0.112,0.129
972161.95330,3,0.108,0.077,11.185,4,-0.120,0.116,0.129
972161.95452,3,0.105,0.105,11.168,4,-0.105,0.118,0.131
972161.95573,3,0.091,0.127,11.140,4,-0.089,0.115,0.134
972161.95695,3,0.081,0.136,11.111,4,-0.075,0.117,0.135,5,-7.050,-30.225,9.544
972161.95816,3,0.065,0.153,11.087
972161.95938,3,0.050,0.163,11.063,4,-0.043,0.114,0.138
972161.96059,3,0.031,0.182,11.027,4,-0.026,0.113,0.140
972161.96181,3,0.010,0.194,10.982,4,-0.010,0.111,0.145
972161.96302,3,0.000,0.203,10.934,4,0.003,0.106,0.149
972161.96424,3,-0.012,0.225,10.895,4,0.017,0.102,0.150
972161.96545,3,-0.029,0.234,10.855,4,0.033,0.097,0.151
972161.96667,3,-0.053,0.239,10.804,4,0.048,0.091,0.153,5,-7.106,-30.244,9.563
972161.96788,3,-0.067,0.249,10.757,4,0.063,0.087,0.157
972161.96910,3,-0.072,0.261,10.704,4,0.077,0.080,0.158
972161.97032,3,-0.067,0.283,10.649,4,0.089,0.076,0.160
972161.97153,3,-0.069,0.290,10.599,4,0.104,0.070,0.161
972161.97275,3,-0.093,0.285,10.544,4,0.115,0.065,0.164
972161.97396,3,-0.105,0.280,10.489,4,0.125,0.057,0.166
972161.97518,3,-0.098,0.285,10.424,4,0.138,0.050,0.168
972161.97639,3,-0.108,0.297,10.357,4,0.149,0.044,0.171,5,-7.406,-30.413,9.956
972161.97761,3,-0.127,0.304,10.297,4,0.162,0.039,0.173
972161.97882,3,-0.146,0.304,10.230,4,0.173,0.033,0.176
972161.98004,3,-0.156,0.311,10.170,4,0.178,0.031,0.177
972161.98125,3,-0.146,0.316,10.115,4,0.190,0.025,0.180
972161.98247,3,-0.141,0.319,10.055
972161.98368,3,-0.146,0.309,9.995,4,0.196,0.022,0.182
972161.98490,3,-0.160,0.287,9.948,4,0.210,0.014,0.185
972161.98611,3,-0.172,0.283,9.914
972161.98733,3,-0.179,0.290,9.864,4,0.220,0.010,0.187,5,-7.519,-30.750,9.900
972161.98855,3,-0.189,0.292,9.801,4,0.226,0.007,0.188
972161.98976,3,-0.191,0.304,9.741,4,0.229,0.006,0.188
972161.99098,3,-0.199,0.307,9.677,4,0.239,0.001,0.191
972161.99219,3,-0.208,0.307,9.612,4,0.242,0.001,0.193
972161.99341,3,-0.218,0.321,9.560
972161.99462,3,-0.223,0.328,9.509,4,0.245,0.000,0.193
972161.99584,3,-0.230,0.323,9.469,4,0.248,-0.005,0.193
972161.99705,3,-0.237,0.321,9.423,4,0.252,-0.005,0.195,5,-7.575,-30.806,9.825
972161.99827,3,-0.244,0.316,9.378
972161.99948,3,-0.261,0.319,9.339,4,0.248,-0.007,0.198
972162.00070,3,-0.273,0.335,9.299,4,0.248,-0.009,0.200
972162.00191,3,-0.287,0.354,9.263,4,0.245,-0.011,0.201
972162.00313,3,-0.302,0.364,9.224
972162.00434,3,-0.304,0.369,9.181,4,0.239,-0.015,0.201
972162.00556,3,-0.309,0.378,9.143,4,0.235,-0.018,0.207
972162.00678,3,-0.319,0.393,9.109,5,-7.219,-30.900,9.919
972162.00799,3,-0.316,0.402,9.076,4,0.227,-0.024,0.209
972162.00921,3,-0.319,0.400,9.040
972162.01042,3,-0.316,0.402,9.007,4,0.220,-0.027,0.212
972162.01164,3,-0.304,0.407,8.980,4,0.212,-0.031,0.215
972162.01285,3,-0.304,0.412,8.954,4,0.201,-0.032,0.215
972162.01407,3,-0.314,0.407,8.913,4,0.195,-0.035,0.217
972162.01528,3,-0.319,0.405,8.873
972162.01650,3,-0.326,0.412,8.846,4,0.187,-0.035,0.216,5,-7.313,-30.938,9.788
972162.01771,3,-0.319,0.414,8.820,4,0.173,-0.040,0.220
972162.01893,3,-0.302,0.407,8.789,4,0.164,-0.041,0.220
972162.02014,3,-0.292,0.414,8.758,4,0.152,-0.043,0.220
972162.02136,3,-0.273,0.421,8.739,4,0.147,-0.045,0.220
972162.02257,3,-0.258,0.409,8.724,4,0.138,-0.049,0.220
972162.02379,3,-0.254,0.407,8.715,4,0.127,-0.048,0.221
972162.02500,3,-0.256,0.412,8.690
972162.02622,3,-0.251,0.405,8.671,4,0.111,-0.051,0.220
972162.02744,3,-0.232,0.383,8.657,4,0.099,-0.051,0.221,5,-7.519,-31.238,9.694
972162.02865,3,-0.218,0.374,8.640
972162.02987,3,-0.211,0.369,8.623,4,0.090,-0.048,0.220
972162.03108,3,-0.215,0.369,8.609,4,0.072,-0.051,0.221
972162.03230,3,-0.213,0.381,8.602,4,0.063,-0.049,0.221
972162.03351,3,-0.194,0.388,8.600,4,0.053,-0.048,0.219
972162.03473,3,-0.182,0.388,8.607,4,0.044,-0.043,0.219
972162.03594,3,-0.165,0.381,8.619,4,0.031,-0.042,0.218
972162.03716,3,-0.146,0.381,8.633,4,0.026,-0.041,0.217,5,-7.425,-31.238,9.656
972162.03837,3,-0.141,0.376,8.640,4,0.015,-0.038,0.217
972162.03959,3,-0.139,0.369,8.643,4,0.007,-0.037,0.214
972162.04080,3,-0.139,0.364,8.655,4,-0.004,-0.035,0.217
972162.04202,3,-0.141,0.357,8.674,4,-0.008,-0.035,0.214
972162.04323,3,-0.127,0.350,8.690
972162.04445,3,-0.112,0.347,8.715,4,-0.031,-0.029,0.213
972162.04567,3,-0.105,0.338,8.748
972162.04688,3,-0.089,0.331,8.772,4,-0.044,-0.029,0.211,5,-7.500,-31.031,9.450
972162.04810,3,-0.074,0.328,8.794
972162.04931,3,-0.057,0.328,8.815,4,-0.060,-0.030,0.212
972162.05053,3,-0.048,0.326,8.841,4,-0.066,-0.029,0.209
972162.05174,3,-0.048,0.316,8.875,4,-0.072,-0.032,0.212
972162.05296,3,-0.036,0.304,8.911,4,-0.080,-0.031,0.209
972162.05417,3,-0.019,0.307,8.935,4,-0.089,-0.034,0.210
972162.05539,3,-0.010,0.304,8.956
972162.05660,3,-0.007,0.295,8.983,4,-0.099,-0.035,0.209,5,-7.556,-30.881,9.544
972162.05782,3,0.000,0.292,9.009,4,-0.107,-0.040,0.208
972162.05903,3,0.012,0.285,9.031,4,-0.114,-0.043,0.209
972162.06025,3,0.017,0.283,9.062,4,-0.117,-0.046,0.209
972162.06146,3,0.014,0.283,9.090,4,-0.121,-0.046,0.209
972162.06268,3,0.024,0.278,9.119,4,-0.127,-0.047,0.208
972162.06389,3,0.036,0.266,9.150,4,-0.134,-0.049,0.208
972162.06511,3,0.031,0.256,9.179,4,-0.135,-0.055,0.207
972162.06633,3,0.029,0.254,9.203,4,-0.142,-0.055,0.207,5,-7.538,-30.600,9.544
972162.06754,3,0.033,0.242,9.224,4,-0.145,-0.059,0.206
972162.06876,3,0.041,0.227,9.246,4,-0.151,-0.063,0.207
972162.06997,3,0.053,0.234,9.272,4,-0.154,-0.062,0.206
972162.07119,3,0.060,0.232,9.294
972162.07240,3,0.057,0.211,9.320,4,-0.159,-0.069,0.205
972162.07362,3,0.053,0.199,9.347
972162.07483,3,0.053,0.199,9.375,4,-0.165,-0.074,0.202
972162.07605,3,0.074,0.191,9.404,4,-0.167,-0.080,0.201,5,-7.744,-30.413,9.713
972162.07726,3,0.086,0.182,9.442,4,-0.167,-0.082,0.198
972162.07848,3,0.084,0.177,9.483,4,-0.169,-0.085,0.199
972162.07969,3,0.091,0.163,9.512
972162.08091,3,0.098,0.151,9.543,4,-0.168,-0.095,0.196
972162.08212,3,0.103,0.144,9.574,4,-0.170,-0.100,0.195
972162.08334,3,0.112,0.146,9.603,4,-0.170,-0.103,0.192
972162.08456,3,0.117,0.153,9.636,4,-0.171,-0.109,0.192
972162.08577,3,0.117,0.148,9.663,4,-0.173,-0.114,0.188,5,-8.138,-30.469,9.750
972162.08699,3,0.117,0.136,9.703,4,-0.172,-0.119,0.188
972162.08820,3,0.127,0.134,9.741
972162.08942,3,0.136,0.129,9.763,4,-0.168,-0.132,0.185
972162.09063,3,0.141,0.122,9.785,4,-0.167,-0.136,0.182
972162.09185,3,0.139,0.127,9.811
972162.09306,3,0.132,0.148,9.835,4,-0.166,-0.147,0.180
972162.09428,3,0.134,0.156,9.857,4,-0.165,-0.151,0.177
972162.09549,3,0.141,0.148,9.881
972162.09671,3,0.151,0.158,9.904,4,-0.162,-0.164,0.171,5,-8.138,-30.600,9.788
972162.09792,3,0.165,0.177,9.931,4,-0.159,-0.170,0.171
972162.09914,3,0.170,0.184,9.960,4,-0.158,-0.175,0.170
972162.10035,3,0.170,0.182,9.974,4,-0.154,-0.182,0.168
972162.10157,3,0.175,0.175,9.983,4,-0.149,-0.185,0.166
972162.10279,3,0.189,0.167,9.993,4,-0.148,-0.193,0.165
972162.10400,3,0.201,0.175,10.012,4,-0.144,-0.192,0.162
972162.10522,3,0.208,0.187,10.029,4,-0.141,-0.197,0.160
972162.10643,3,0.215,0.199,10.031,4,-0.138,-0.202,0.160,5,-8.419,-30.394,9.769
972162.10765,3,0.230,0.223,10.036,4,-0.131,-0.207,0.158
972162.10886,3,0.242,0.237,10.038,4,-0.130,-0.207,0.155
972162.11008,3,0.246,0.234,10.027
972162.11129,3,0.263,0.234,10.019,4,-0.121,-0.208,0.151
972162.11251,3,0.273,0.242,10.019
972162.11372,3,0.270,0.246,10.005,4,-0.113,-0.210,0.149
972162.11494,3,0.280,0.251,9.986,4,-0.104,-0.208,0.147
972162.11615,3,0.292,0.261,9.976,4,-0.100,-0.205,0.144,5,-8.606,-30.413,9.769
972162.11737,3,0.304,0.270,9.971,4,-0.094,-0.205,0.143
972162.11858,3,0.316,0.280,9.960,4,-0.087,-0.202,0.141
972162.11980,3,0.316,0.297,9.940,4,-0.084,-0.195,0.137
972162.12101,3,0.319,0.299,9.924,4,-0.079,-0.193,0.137
972162.12223,3,0.321,0.299,9.909
972162.12345,3,0.331,0.319,9.883,4,-0.068,-0.181,0.133
972162.12466,3,0.345,0.342,9.857,4,-0.061,-0.176,0.132
972162.12588,3,0.362,0.354,9.840,4,-0.053,-0.172,0.130
972162.12709,3,0.374,0.354,9.818,4,-0.046,-0.164,0.128,5,-8.813,-30.319,10.163
972162.12831,3,0.381,0.359,9.797
972162.12952,3,0.383,0.371,9.777,4,-0.031,-0.154,0.126
972162.13074,3,0.386,0.378,9.758
972162.13195,3,0.383,0.393,9.739,4,-0.030,-0.146,0.125
972162.13317,3,0.376,0.414,9.720,4,-0.021,-0.137,0.122
972162.13438,3,0.378,0.441,9.701,4,-0.011,-0.120,0.118
972162.13560,3,0.378,0.457,9.674,4,-0.003,-0.113,0.117
972162.13681,3,0.378,0.474,9.648,5,-8.888,-30.469,10.069
972162.13803,3,0.378,0.488,9.612,4,0.006,-0.106,0.118
972162.13924,3,0.371,0.496,9.574,4,0.014,-0.085,0.114
972162.14046,3,0.364,0.503,9.545,4,0.022,-0.079,0.114
972162.14168,3,0.369,0.522,9.519
972162.14289,3,0.366,0.539,9.485,4,0.032,-0.057,0.111
972162.14411,3,0.362,0.555,9.450,4,0.042,-0.047,0.110
972162.14532,3,0.354,0.567,9.406
972162.14654,3,0.347,0.587,9.363,4,0.050,-0.027,0.111,5,-8.831,-30.394,10.238
972162.14775,3,0.342,0.596,9.328,4,0.056,-0.014,0.110
972162.14897,3,0.335,0.599,9.289,4,0.057,-0.002,0.109
972162.15018,3,0.326,0.603,9.246,4,0.061,0.007,0.108
972162.15140,3,0.321,0.608,9.210,4,0.069,0.015,0.109
972162.15261,3,0.321,0.618,9.176,4,0.070,0.026,0.107
972162.15383,3,0.314,0.620,9.136
972162.15504,3,0.295,0.620,9.093,4,0.075,0.043,0.107
972162.15626,3,0.287,0.620,9.050,4,0.078,0.051,0.107,5,-8.569,-30.281,10.256
972162.15747,3,0.297,0.622,9.021,4,0.079,0.059,0.104
972162.15869,3,0.295,0.622,8.997,4,0.081,0.068,0.106
972162.15990,3,0.290,0.620,8.959,4,0.083,0.072,0.102
972162.16112,3,0.292,0.613,8.923,4,0.082,0.076,0.105
972162.16234,3,0.285,0.601,8.892,4,0.081,0.081,0.100
972162.16355,3,0.268,0.601,8.856,4,0.081,0.086,0.096
972162.16477,3,0.263,0.599,8.830,4,0.080,0.094,0.097
972162.16598,3,0.254,0.589,8.806,4,0.076,0.096,0.096,5,-8.625,-30.188,10.331
972162.16720,3,0.234,0.589,8.777,4,0.074,0.101,0.092
972162.16841,3,0.232,0.584,8.760,4,0.069,0.105,0.089
972162.16963,3,0.230,0.577,8.734
972162.17084,3,0.201,0.579,8.703,4,0.069,0.105,0.086
972162.17206,3,0.177,0.584,8.681,4,0.058,0.115,0.082
972162.17327,3,0.175,0.596,8.662
972162.17449,3,0.158,0.601,8.647,4,0.048,0.118,0.077
972162.17570,3,0.124,0.594,8.638,4,0.039,0.122,0.074
972162.17692,3,0.093,0.587,8.621,4,0.033,0.122,0.071,5,-8.925,-30.225,10.106
972162.17813,3,0.067,0.579,8.592,4,0.029,0.123,0.069
972162.17935,3,0.048,0.587,8.571,4,0.023,0.125,0.064
972162.18057,3,0.038,0.606,8.576
972162.18178,3,0.017,0.603,8.573,4,0.010,0.126,0.060
972162.18300,3,-0.017,0.587,8.568
972162.18421,3,-0.038,0.577,8.568,4,-0.005,0.128,0.054
972162.18543,3,-0.045,0.575,8.564,4,-0.014,0.128,0.052
972162.18664,3,-0.050,0.582,8.552,4,-0.023,0.131,0.049,5,-8.963,-30.244,10.106
972162.18786,3,-0.048,0.584,8.542,4,-0.028,0.130,0.046
972162.18907,3,-0.053,0.575,8.540,4,-0.035,0.125,0.045
972162.19029,3,-0.065,0.560,8.535,4,-0.046,0.129,0.040
972162.19150,3,-0.079,0.551,8.525,4,-0.055,0.127,0.040
972162.19272,3,-0.093,0.560,8.513,4,-0.061,0.123,0.035
972162.19393,3,-0.100,0.584,8.506,4,-0.072,0.125,0.032
972162.19515,3,-0.105,0.594,8.509,4,-0.082,0.124,0.033
972162.19636,3,-0.120,0.596,8.506,4,-0.090,0.123,0.029,5,-9.131,-30.075,10.238
972162.19758,3,-0.129,0.601,8.506,4,-0.102,0.124,0.026
972162.19880,3,-0.129,0.599,8.501
972162.20001,3,-0.134,0.599,8.489,4,-0.118,0.121,0.023
972162.20123,3,-0.144,0.603,8.489,4,-0.128,0.123,0.019
972162.20244,3,-0.151,0.610,8.494,4,-0.135,0.119,0.017
972162.20366,3,-0.148,0.613,8.497,4,-0.146,0.118,0.014
972162.20487,3,-0.148,0.613,8.501,4,-0.155,0.120,0.013
972162.20609,3,-0.153,0.615,8.513,4,-0.164,0.117,0.012,5,-9.131,-30.169,9.975
972162.20730,3,-0.153,0.615,8.525,4,-0.172,0.118,0.011
972162.20852,3,-0.153,0.625,8.528,4,-0.181,0.116,0.009
972162.20973,3,-0.158,0.630,8.528,4,-0.191,0.117,0.008
972162.21095,3,-0.163,0.627,8.537,4,-0.196,0.114,0.004
972162.21216,3,-0.165,0.625,8.554,4,-0.204,0.112,0.005
972162.21338,3,-0.163,0.622,8.571,4,-0.211,0.111,0.002
972162.21459,3,-0.163,0.627,8.580,4,-0.218,0.109,0.000
972162.21581,3,-0.163,0.630,8.592
972162.21702,3,-0.163,0.637,8.611,4,-0.233,0.106,-0.005,5,-9.113,-29.869,9.956
972162.21824,3,-0.163,0.649,8.633,4,-0.238,0.105,-0.004
972162.21946,3,-0.165,0.651,8.662
972162.22067,3,-0.167,0.649,8.688,4,-0.247,0.097,-0.011
972162.22189,3,-0.156,0.639,8.712,4,-0.253,0.097,-0.009
972162.22310,3,-0.144,0.630,8.736,4,-0.256,0.093,-0.010
972162.22432,3,-0.153,0.627,8.755,4,-0.259,0.090,-0.015
972162.22553,3,-0.163,0.625,8.774,4,-0.265,0.087,-0.013
972162.22675,3,-0.163,0.632,8.801,4,-0.265,0.082,-0.014,5,-9.019,-29.906,9.919
972162.22796,3,-0.160,0.646,8.832
972162.22918,3,-0.165,0.654,8.868,4,-0.268,0.078,-0.019
972162.23039,3,-0.163,0.658,8.906,4,-0.273,0.075,-0.019
972162.23161,3,-0.163,0.656,8.935
972162.23282,3,-0.172,0.661,8.954,4,-0.273,0.068,-0.020
972162.23404,3,-0.172,0.668,8.975,4,-0.275,0.067,-0.022
972162.23525,3,-0.158,0.670,8.997,4,-0.274,0.065,-0.025
972162.23647,3,-0.153,0.668,9.023,5,-9.188,-30.019,9.900
972162.23769,3,-0.160,0.670,9.047,4,-0.275,0.059,-0.022
972162.23890,3,-0.165,0.680,9.069
972162.24012,3,-0.167,0.689,9.086,4,-0.272,0.061,-0.021
972162.24133,3,-0.175,0.699,9.107,4,-0.272,0.055,-0.022
972162.24255,3,-0.189,0.706,9.131,4,-0.269,0.054,-0.024
972162.24376,3,-0.199,0.706,9.160,4,-0.267,0.052,-0.021
972162.24498,3,-0.194,0.711,9.186
972162.24619,3,-0.194,0.721,9.208,4,-0.262,0.047,-0.021,5,-9.000,-30.000,9.844
972162.24741,3,-0.201,0.730,9.229,4,-0.257,0.047,-0.017
972162.24862,3,-0.211,0.735,9.251
972162.24984,3,-0.223,0.730,9.280,4,-0.256,0.045,-0.018
972162.25105,3,-0.234,0.740,9.306,4,-0.251,0.043,-0.014
972162.25227,3,-0.254,0.754,9.325,4,-0.246,0.041,-0.010
972162.25348,3,-0.268,0.749,9.349,4,-0.243,0.039,-0.008
972162.25470,3,-0.273,0.754,9.378,4,-0.239,0.038,-0.007
972162.25591,3,-0.280,0.768,9.397,4,-0.236,0.037,-0.004,5,-8.831,-29.681,9.994
972162.25713,3,-0.285,0.773,9.411,4,-0.232,0.035,0.002
972162.25835,3,-0.280,0.776,9.428,4,-0.228,0.036,0.001
972162.25956,3,-0.275,0.778,9.457,4,-0.227,0.034,0.005
972162.26078,3,-0.283,0.785,9.488,4,-0.224,0.034,0.006
972162.26199,3,-0.290,0.783,9.519,4,-0.218,0.031,0.007
972162.26321,3,-0.275,0.776,9.543,4,-0.217,0.031,0.011
972162.26442,3,-0.273,0.771,9.560
972162.26564,3,-0.283,0.773,9.572,4,-0.209,0.029,0.016
972162.26685,3,-0.287,0.773,9.586,4,-0.203,0.028,0.017,5,-8.588,-29.644,10.125
972162.26807,3,-0.287,0.768,9.600
972162.26928,3,-0.292,0.766,9.622,4,-0.200,0.029,0.024
972162.27050,3,-0.292,0.768,9.636,4,-0.193,0.030,0.026
972162.27171,3,-0.287,0.764,9.641,4,-0.191,0.032,0.028
972162.27293,3,-0.287,0.759,9.646,4,-0.190,0.031,0.027
972162.27414,3,-0.287,0.761,9.658,4,-0.185,0.034,0.030
972162.27536,3,-0.285,0.759,9.667
972162.27658,3,-0.278,0.764,9.684,4,-0.176,0.037,0.033,5,-8.531,-29.738,10.031
972162.27779,3,-0.263,0.773,9.703
972162.27901,3,-0.261,0.771,9.722,4,-0.168,0.039,0.034
972162.28022,3,-0.268,0.776,9.741,4,-0.162,0.040,0.035
972162.28144,3,-0.283,0.773,9.749
972162.28265,3,-0.285,0.764,9.749,4,-0.156,0.042,0.033
972162.28387,3,-0.278,0.771,9.753,4,-0.151,0.042,0.038
972162.28508,3,-0.280,0.778,9.770,4,-0.145,0.043,0.037
972162.28630,3,-0.292,0.778,9.770,4,-0.143,0.046,0.034,5,-8.438,-29.888,10.331
972162.28751,3,-0.302,0.776,9.773,4,-0.137,0.047,0.036
972162.28873,3,-0.314,0.778,9.780,4,-0.135,0.046,0.035
972162.28994,3,-0.323,0.788,9.780,4,-0.126,0.046,0.035
972162.29116,3,-0.331,0.797,9.777,4,-0.121,0.047,0.038
972162.29237,3,-0.335,0.800,9.782,4,-0.119,0.048,0.035
972162.29359,3,-0.340,0.797,9.785,4,-0.115,0.047,0.036
972162.29481,3,-0.342,0.795,9.775,4,-0.110,0.048,0.036
972162.29602,3,-0.347,0.795,9.775,4,-0.101,0.044,0.034,5,-8.250,-29.850,10.200
972162.29724,3,-0.357,0.788,9.794
972162.29845,3,-0.352,0.788,9.811,4,-0.091,0.044,0.033
972162.29967,3,-0.350,0.795,9.811,4,-0.086,0.040,0.030
972162.30088,3,-0.366,0.792,9.811,4,-0.085,0.040,0.033
972162.30210,3,-0.374,0.780,9.821,4,-0.075,0.037,0.028
972162.30331,3,-0.374,0.785,9.828,4,-0.074,0.036,0.028
972162.30453,3,-0.383,0.790,9.830,4,-0.066,0.031,0.027
972162.30574,3,-0.400,0.792,9.828
972162.30696,3,-0.419,0.800,9.828,4,-0.064,0.029,0.026,5,-8.550,-29.963,9.975
972162.30817,3,-0.426,0.811,9.837,4,-0.054,0.021,0.023
972162.30939,3,-0.438,0.819,9.849,4,-0.049,0.018,0.025
972162.31060,3,-0.455,0.826,9.861,4,-0.046,0.013,0.023
972162.31182,3,-0.450,0.838,9.869,4,-0.041,0.010,0.023
972162.31303,3,-0.450,0.848,9.871,4,-0.036,0.003,0.023
972162.31425,3,-0.462,0.855,9.869,4,-0.032,-0.001,0.020
972162.31547,3,-0.467,0.869,9.866
972162.31668,3,-0.467,0.881,9.869,4,-0.031,-0.007,0.022,5,-8.513,-30.075,9.675
972162.31790,3,-0.469,0.891,9.869,4,-0.022,-0.017,0.022
972162.31911,3,-0.481,0.896,9.861,4,-0.019,-0.024,0.021
972162.32033,3,-0.500,0.900,9.864,4,-0.014,-0.029,0.022
972162.32154,3,-0.512,0.910,9.878,4,-0.012,-0.032,0.022
972162.32276,3,-0.527,0.917,9.881,4,-0.013,-0.037,0.023
972162.32397,3,-0.543,0.922,9.864,4,-0.008,-0.043,0.025
972162.32519,3,-0.543,0.936,9.849,4,-0.003,-0.048,0.024
972162.32640,3,-0.534,0.955,9.847,4,-0.002,-0.052,0.025,5,-8.625,-30.244,9.619
972162.32762,3,-0.534,0.967,9.852,4,0.001,-0.057,0.025
972162.32883,3,-0.539,0.977,9.857,4,0.005,-0.063,0.027
972162.33005,3,-0.551,0.989,9.859
972162.33126,3,-0.551,0.994,9.861,4,0.014,-0.070,0.027
972162.33248,3,-0.553,0.998,9.859,4,0.016,-0.073,0.028
972162.33370,3,-0.553,1.013,9.854,4,0.017,-0.077,0.029
972162.33491,3,-0.553,1.030,9.845,4,0.020,-0.082,0.030
972162.33613,3,-0.551,1.034,9.840,5,-8.831,-30.113,9.525
972162.33734,3,-0.539,1.041,9.837,4,0.023,-0.085,0.030
972162.33856,3,-0.541,1.058,9.837,4,0.024,-0.088,0.030
972162.33977,3,-0.541,1.075,9.837,4,0.026,-0.088,0.031
972162.34099,3,-0.534,1.087,9.837,4,0.031,-0.090,0.032
972162.34220,3,-0.536,1.092,9.826,4,0.031,-0.092,0.031
972162.34342,3,-0.532,1.097,9.804,4,0.031,-0.093,0.031
972162.34463,3,-0.529,1.101,9.797,4,0.031,-0.094,0.033
972162.34585,3,-0.541,1.111,9.789,4,0.032,-0.096,0.033,5,-9.000,-30.169,9.469
972162.34706,3,-0.539,1.130,9.775,4,0.037,-0.095,0.034
972162.34828,3,-0.512,1.144,9.763,4,0.037,-0.095,0.029
972162.34949,3,-0.500,1.156,9.751,4,0.036,-0.094,0.034
972162.35071,3,-0.503,1.166,9.739,4,0.037,-0.091,0.035
972162.35192,3,-0.508,1.173,9.730,4,0.033,-0.085,0.036
972162.35314,3,-0.512,1.183,9.720,4,0.034,-0.084,0.039
972162.35436,3,-0.515,1.185,9.710,4,0.036,-0.081,0.039
972162.35557,3,-0.512,1.190,9.701,4,0.030,-0.076,0.040
972162.35679,3,-0.512,1.204,9.694,4,0.028,-0.071,0.042,5,-9.019,-30.188,9.338
972162.35800,3,-0.500,1.221,9.682,4,0.026,-0.064,0.044
972162.35922,3,-0.491,1.221,9.672,4,0.026,-0.059,0.045
972162.36043,3,-0.498,1.209,9.665,4,0.026,-0.054,0.046
972162.36165,3,-0.496,1.209,9.663,4,0.020,-0.045,0.049
972162.36286,3,-0.484,1.216,9.670,4,0.018,-0.037,0.052
972162.36408,3,-0.476,1.226,9.677
972162.36529,3,-0.467,1.226,9.677,4,0.017,-0.028,0.053
972162.36651,3,-0.457,1.214,9.670,4,0.010,-0.009,0.057,5,-8.813,-30.113,9.188
972162.36772,3,-0.460,1.202,9.672,4,0.011,-0.005,0.059
972162.36894,3,-0.474,1.192,9.682
972162.37015,3,-0.498,1.183,9.694,4,0.005,0.018,0.066
972162.37137,3,-0.508,1.175,9.708,4,-0.000,0.028,0.068
972162.37259,3,-0.498,1.166,9.720,4,-0.003,0.039,0.073
972162.37380,3,-0.491,1.144,9.739,4,-0.006,0.047,0.077
972162.37502,3,-0.488,1.123,9.773,4,-0.008,0.055,0.080
972162.37623,3,-0.484,1.118,9.808,5,-8.925,-30.263,9.206
972162.37745,3,-0.476,1.118,9.826,4,-0.014,0.070,0.088
972162.37866,3,-0.465,1.113,9.847,4,-0.014,0.075,0.090
972162.37988,3,-0.441,1.106,9.873,4,-0.016,0.078,0.093
972162.38109,3,-0.412,1.092,9.895,4,-0.015,0.079,0.099
972162.38231,3,-0.386,1.089,9.916
972162.38352,3,-0.362,1.089,9.928,4,-0.020,0.084,0.105
972162.38474,3,-0.342,1.087,9.943,4,-0.021,0.086,0.107
972162.38595,3,-0.323,1.089,9.957,4,-0.025,0.089,0.107,5,-8.813,-30.281,9.225
972162.38717,3,-0.302,1.094,9.964,4,-0.027,0.088,0.108
972162.38838,3,-0.273,1.101,9.967,4,-0.027,0.090,0.109
972162.38960,3,-0.244,1.108,9.960
972162.39082,3,-0.215,1.108,9.955,4,-0.030,0.090,0.108
972162.39203,3,-0.177,1.108,9.960,4,-0.032,0.092,0.109
972162.39325,3,-0.144,1.106,9.964
972162.39446,3,-0.115,1.106,9.976,4,-0.032,0.090,0.108
972162.39568,3,-0.093,1.113,9.991,4,-0.036,0.094,0.104
972162.39689,3,-0.079,1.125,9.995,4,-0.035,0.094,0.102,5,-8.681,-30.244,9.450
972162.39811,3,-0.067,1.123,10.003
972162.39932,3,-0.048,1.106,10.022,4,-0.034,0.095,0.100
972162.40054,3,-0.026,1.087,10.043,4,-0.031,0.100,0.093
972162.40175,3,-0.002,1.080,10.062
972162.40297,3,0.031,1.077,10.084,4,-0.030,0.101,0.082
972162.40418,3,0.057,1.063,10.105,4,-0.031,0.103,0.080
972162.40540,3,0.084,1.049,10.129,4,-0.029,0.101,0.078
972162.40661,3,0.120,1.039,10.153,4,-0.024,0.104,0.072,5,-8.475,-29.888,9.356
972162.40783,3,0.146,1.037,10.168,4,-0.023,0.104,0.068
972162.40904,3,0.153,1.030,10.184
972162.41026,3,0.158,1.010,10.196,4,-0.017,0.103,0.055
972162.41148,3,0.175,0.996,10.213,4,-0.014,0.101,0.052
972162.41269,3,0.191,0.986,10.235,4,-0.011,0.103,0.045
972162.41391,3,0.206,0.970,10.249,4,-0.003,0.103,0.039
972162.41512,3,0.220,0.948,10.263,4,-0.001,0.105,0.033
972162.41634,3,0.230,0.939,10.273,4,0.005,0.103,0.027,5,-8.325,-30.056,9.581
972162.41755,3,0.239,0.922,10.280,4,0.012,0.104,0.022
972162.41877,3,0.242,0.888,10.292,4,0.019,0.106,0.016
972162.41998,3,0.230,0.864,10.306,4,0.022,0.103,0.010
972162.42120,3,0.227,0.848,10.309,4,0.030,0.105,0.003
972162.42241,3,0.237,0.831,10.311,4,0.037,0.104,-0.005
972162.42363,3,0.230,0.819,10.321
972162.42484,3,0.218,0.809,10.328,4,0.050,0.103,-0.015
972162.42606,3,0.208,0.790,10.335
972162.42727,3,0.184,0.768,10.335,4,0.063,0.100,-0.027,5,-8.400,-30.094,9.544
972162.42849,3,0.156,0.752,10.335
972162.42971,3,0.141,0.744,10.333,4,0.074,0.097,-0.030
972162.43092,3,0.122,0.737,10.330,4,0.084,0.095,-0.037
972162.43214,3,0.093,0.733,10.330,4,0.098,0.090,-0.046
972162.43335,3,0.074,0.723,10.321
972162.43457,3,0.062,0.711,10.311,4,0.106,0.087,-0.049
972162.43578,3,0.031,0.711,10.306,4,0.115,0.084,-0.054
972162.43700,3,-0.014,0.711,10.292,4,0.133,0.078,-0.061,5,-8.456,-30.188,9.581
972162.43821,3,-0.038,0.706,10.275
972162.43943,3,-0.050,0.711,10.256,4,0.149,0.071,-0.065
972162.44064,3,-0.055,0.704,10.237,4,0.158,0.066,-0.069
972162.44186,3,-0.057,0.694,10.225,4,0.165,0.062,-0.068
972162.44307,3,-0.062,0.689,10.194,4,0.172,0.061,-0.071
972162.44429,3,-0.069,0.692,10.158,4,0.179,0.057,-0.072
972162.44550,3,-0.077,0.699,10.129,4,0.188,0.054,-0.074,5,-8.606,-30.094,9.431
972162.44672,3,-0.079,0.701,10.103
972162.44794,3,-0.081,0.694,10.072,4,0.204,0.048,-0.077
972162.44915,3,-0.086,0.689,10.046,4,0.211,0.051,-0.079
972162.45037,3,-0.084,0.692,10.010,4,0.217,0.052,-0.081
972162.45158,3,-0.084,0.694,9.969,4,0.222,0.053,-0.080
972162.45280,3,-0.089,0.699,9.936,4,0.231,0.052,-0.083
972162.45401,3,-0.096,0.697,9.895,4,0.236,0.056,-0.082
972162.45523,3,-0.108,0.694,9.847
972162.45644,3,-0.112,0.704,9.808,4,0.246,0.064,-0.082,5,-8.756,-29.813,9.450
972162.45766,3,-0.117,0.721,9.765,4,0.251,0.066,-0.084
972162.45887,3,-0.127,0.733,9.722,4,0.260,0.068,-0.080
972162.46009,3,-0.136,0.735,9.684,4,0.265,0.074,-0.082
972162.46130,3,-0.146,0.721,9.651,4,0.270,0.081,-0.083
972162.46252,3,-0.160,0.713,9.619,4,0.274,0.084,-0.079
972162.46373,3,-0.182,0.711,9.579,4,0.279,0.093,-0.080
972162.46495,3,-0.191,0.692,9.538
972162.46616,3,-0.203,0.666,9.505,4,0.281,0.114,-0.074,5,-8.756,-29.681,9.394
972162.46738,3,-0.218,0.642,9.483,4,0.287,0.121,-0.070
972162.46860,3,-0.223,0.620,9.464,4,0.290,0.130,-0.065
972162.46981,3,-0.230,0.599,9.450
972162.47103,3,-0.239,0.587,9.426,4,0.292,0.147,-0.057
972162.47224,3,-0.234,0.582,9.397,4,0.295,0.155,-0.055
972162.47346,3,-0.230,0.572,9.373,4,0.296,0.158,-0.050
972162.47467,3,-0.227,0.563,9.354,4,0.294,0.165,-0.046
972162.47589,3,-0.239,0.560,9.335
972162.47710,3,-0.249,0.575,9.311,4,0.294,0.174,-0.039,5,-8.813,-29.606,9.338
972162.47832,3,-0.246,0.591,9.292,4,0.297,0.177,-0.033
972162.47953,3,-0.251,0.601,9.261,4,0.295,0.179,-0.033
972162.48075,3,-0.249,0.608,9.220,4,0.295,0.183,-0.030
972162.48196,3,-0.239,0.625,9.186
972162.48318,3,-0.244,0.634,9.155,4,0.289,0.187,-0.025
972162.48439,3,-0.249,0.644,9.121,4,0.287,0.193,-0.024
972162.48561,3,-0.254,0.658,9.093,4,0.279,0.199,-0.020
972162.48683,3,-0.256,0.670,9.062,4,0.275,0.203,-0.017,5,-9.225,-29.663,9.413
972162.48804,3,-0.261,0.687,9.031,4,0.270,0.210,-0.013
972162.48926,3,-0.258,0.711,9.004
972162.49047,3,-0.268,0.737,8.985,4,0.259,0.218,-0.009
972162.49169,3,-0.278,0.759,8.968,4,0.252,0.222,-0.008
972162.49290,3,-0.285,0.788,8.956,4,0.242,0.226,-0.005
972162.49412,3,-0.302,0.814,8.952,4,0.235,0.232,-0.002
972162.49533,3,-0.304,0.828,8.949,4,0.228,0.233,0.001
972162.49655,3,-0.316,0.838,8.942,4,0.221,0.236,0.003,5,-9.300,-29.644,9.225
972162.49776,3,-0.326,0.843,8.935,4,0.210,0.241,0.006
972162.49898,3,-0.326,0.840,8.944,4,0.199,0.243,0.011
972162.50019,3,-0.328,0.840,8.956
972162.50141,3,-0.331,0.848,8.964,4,0.190,0.245,0.014
972162.50262,3,-0.340,0.857,8.978,4,0.179,0.244,0.016
972162.50384,3,-0.350,0.867,8.992,4,0.168,0.245,0.017
972162.50505,3,-0.357,0.860,9.007,4,0.159,0.245,0.022
972162.50627,3,-0.366,0.855,9.028,4,0.135,0.246,0.029,5,-9.206,-29.569,9.225
972162.50749,3,-0.374,0.857,9.059,4,0.125,0.239,0.035
972162.50870,3,-0.374,0.860,9.088,4,0.114,0.238,0.033
972162.50992,3,-0.378,0.855,9.109,4,0.102,0.234,0.038
972162.51113,3,-0.378,0.835,9.131,4,0.093,0.227,0.042
972162.51235,3,-0.371,0.821,9.155,4,0.082,0.226,0.046
972162.51356,3,-0.366,0.821,9.162,4,0.072,0.221,0.049
972162.51478,3,-0.362,0.826,9.169,4,0.059,0.212,0.052
972162.51599,3,-0.364,0.828,9.184,4,0.051,0.207,0.053
972162.51721,3,-0.381,0.828,9.210,4,0.042,0.203,0.056,5,-9.131,-29.419,9.638
972162.51842,3,-0.393,0.840,9.234,4,0.033,0.196,0.058
972162.51964,3,-0.386,0.848,9.251,4,0.028,0.188,0.059
972162.52085,3,-0.376,0.845,9.270
972162.52207,3,-0.376,0.845,9.292,4,0.016,0.185,0.061
972162.52328,3,-0.359,0.848,9.316,4,0.009,0.175,0.063
972162.52450,3,-0.342,0.852,9.337,4,-0.008,0.161,0.066
972162.52572,3,-0.333,0.864,9.359
972162.52693,3,-0.319,0.879,9.380,4,-0.013,0.153,0.063,5,-9.263,-29.550,9.713
972162.52815,3,-0.302,0.884,9.409,4,-0.022,0.144,0.063
972162.52936,3,-0.280,0.893,9.442,4,-0.028,0.134,0.064
972162.53058,3,-0.268,0.905,9.473,4,-0.037,0.111,0.063
972162.53179,3,-0.254,0.917,9.493,4,-0.042,0.100,0.057
972162.53301,3,-0.223,0.929,9.507,4,-0.043,0.089,0.053
972162.53422,3,-0.184,0.941,9.529,4,-0.046,0.077,0.053
972162.53544,3,-0.153,0.946,9.548,4,-0.049,0.062,0.047
972162.53665,3,-0.129,0.948,9.572,4,-0.053,0.051,0.043,5,-9.094,-29.906,9.788
972162.53787,3,-0.112,0.948,9.603,4,-0.054,0.035,0.040
972162.53908,3,-0.093,0.948,9.627,4,-0.054,0.021,0.036
972162.54030,3,-0.067,0.951,9.646
972162.54151,3,-0.029,0.939,9.672,4,-0.058,-0.001,0.023
972162.54273,3,0.010,0.922,9.696,4,-0.063,-0.016,0.016
972162.54395,3,0.048,0.903,9.720,4,-0.061,-0.031,0.009
972162.54516,3,0.091,0.888,9.756,4,-0.061,-0.044,0.001
972162.54638,3,0.144,0.888,9.797,5,-9.169,-29.794,9.863
972162.54759,3,0.189,0.888,9.835,4,-0.060,-0.059,-0.005
972162.54881,3,0.223,0.874,9.864,4,-0.061,-0.096,-0.025
972162.55002,3,0.261,0.862,9.893,4,-0.063,-0.112,-0.032
972162.55124,3,0.299,0.845,9.928,4,-0.061,-0.131,-0.043
972162.55245,3,0.340,0.823,9.960,4,-0.063,-0.150,-0.054
972162.55367,3,0.376,0.800,9.995,4,-0.061,-0.172,-0.063
972162.55488,3,0.402,0.776,10.043,4,-0.063,-0.189,-0.076
972162.55610,3,0.433,0.754,10.084,4,-0.065,-0.207,-0.089,5,-9.225,-29.700,9.619
972162.55731,3,0.465,0.728,10.117,4,-0.063,-0.228,-0.101
972162.55853,3,0.493,0.699,10.156,4,-0.064,-0.249,-0.112
972162.55974,3,0.529,0.675,10.189,4,-0.071,-0.270,-0.124
972162.56096,3,0.558,0.656,10.216,4,-0.072,-0.287,-0.136
972162.56217,3,0.587,0.644,10.251,4,-0.073,-0.307,-0.146
972162.56339,3,0.615,0.625,10.285,4,-0.072,-0.328,-0.158
972162.56461,3,0.637,0.601,10.304,4,-0.080,-0.342,-0.171
972162.56582,3,0.649,0.577,10.328,4,-0.082,-0.357,-0.183
972162.56704,3,0.654,0.548,10.359,4,-0.085,-0.374,-0.192,5,-9.169,-29.944,9.731
972162.56825,3,0.670,0.520,10.388,4,-0.094,-0.388,-0.203
972162.56947,3,0.687,0.498,10.417,4,-0.097,-0.402,-0.214
972162.57068,3,0.689,0.476,10.446,4,-0.102,-0.414,-0.224
972162.57190,3,0.697,0.467,10.477,4,-0.109,-0.424,-0.235
972162.57311,3,0.699,0.460,10.505,4,-0.113,-0.434,-0.244
972162.57433,3,0.689,0.450,10.529,4,-0.119,-0.442,-0.252
972162.57554,3,0.682,0.453,10.556,4,-0.126,-0.447,-0.261
972162.57676,3,0.670,0.443,10.587,4,-0.135,-0.449,-0.272,5,-9.075,-30.263,9.844
972162.57797,3,0.654,0.421,10.601,4,-0.141,-0.453,-0.280
972162.57919,3,0.637,0.421,10.625
972162.58040,3,0.618,0.424,10.649,4,-0.160,-0.451,-0.293
972162.58162,3,0.596,0.409,10.663
972162.58284,3,0.570,0.405,10.678,4,-0.177,-0.439,-0.307
972162.58405,3,0.551,0.414,10.687,4,-0.185,-0.432,-0.308
972162.58527,3,0.536,0.412,10.692,4,-0.193,-0.423,-0.314
972162.58648,3,0.522,0.407,10.706,4,-0.206,-0.413,-0.319,5,-8.981,-30.263,9.881
972162.58770,3,0.500,0.419,10.726,4,-0.214,-0.401,-0.322
972162.58891,3,0.474,0.424,10.742,4,-0.220,-0.387,-0.324
972162.59013,3,0.453,0.419,10.757,4,-0.228,-0.373,-0.330
972162.59134,3,0.443,0.417,10.764,4,-0.240,-0.355,-0.328
972162.59256,3,0.426,0.417,10.764,4,-0.247,-0.338,-0.335
972162.59377,3,0.414,0.426,10.771,4,-0.253,-0.321,-0.335
972162.59499,3,0.414,0.441,10.764,4,-0.259,-0.300,-0.334
972162.59620,3,0.409,0.445,10.761,4,-0.265,-0.278,-0.336,5,-8.944,-30.319,9.675
972162.59742,3,0.402,0.450,10.757,4,-0.270,-0.254,-0.335
972162.59863,3,0.395,0.457,10.730,4,-0.278,-0.228,-0.336
972162.59985,3,0.393,0.469,10.718
972162.60106,3,0.386,0.479,10.714,4,-0.283,-0.176,-0.332
972162.60228,3,0.390,0.491,10.706
972162.60350,3,0.402,0.488,10.699,4,-0.286,-0.145,-0.332
972162.60471,3,0.407,0.476,10.682,4,-0.292,-0.088,-0.329
972162.60593,3,0.414,0.467,10.659,4,-0.290,-0.057,-0.330,5,-8.831,-30.169,9.600
972162.60714,3,0.429,0.474,10.644,4,-0.291,-0.032,-0.327
972162.60836,3,0.438,0.481,10.642,4,-0.287,0.000,-0.324
972162.60957,3,0.445,0.469,10.630,4,-0.286,0.028,-0.322
972162.61079,3,0.455,0.457,10.606,4,-0.284,0.058,-0.318
972162.61200,3,0.469,0.448,10.589,4,-0.280,0.087,-0.319
972162.61322,3,0.469,0.433,10.580,4,-0.279,0.116,-0.318
972162.61443,3,0.472,0.417,10.568,4,-0.273,0.143,-0.313
972162.61565,3,0.472,0.388,10.558
972162.61686,3,0.469,0.366,10.546,4,-0.271,0.169,-0.311,5,-8.813,-29.906,9.525
972162.61808,3,0.472,0.350,10.522,4,-0.262,0.194,-0.307
972162.61929,3,0.469,0.333,10.508,4,-0.257,0.219,-0.306
972162.62051,3,0.457,0.319,10.496,4,-0.254,0.246,-0.304
972162.62173,3,0.445,0.309,10.479,4,-0.240,0.288,-0.296
972162.62294,3,0.445,0.299,10.472
972162.62416,3,0.426,0.295,10.458,4,-0.234,0.311,-0.294
972162.62537,3,0.400,0.283,10.441,4,-0.222,0.346,-0.286
972162.62659,3,0.381,0.270,10.436,4,-0.211,0.364,-0.282,5,-8.719,-29.944,9.525
972162.62780,3,0.357,0.275,10.424,4,-0.207,0.377,-0.276
972162.62902,3,0.338,0.275,10.414,4,-0.201,0.392,-0.275
972162.63023,3,0.319,0.266,10.414,4,-0.198,0.403,-0.266
972162.63145,3,0.290,0.268,10.407,4,-0.192,0.411,-0.262
972162.63266,3,0.256,0.270,10.398
972162.63388,3,0.213,0.263,10.395,4,-0.180,0.425,-0.244
972162.63509,3,0.175,0.268,10.386,4,-0.174,0.430,-0.240
972162.63631,3,0.136,0.275,10.373,4,-0.171,0.430,-0.231,5,-8.644,-29.794,9.769
972162.63752,3,0.089,0.275,10.369,4,-0.165,0.433,-0.224
972162.63874,3,0.043,0.273,10.364,4,-0.161,0.433,-0.215
972162.63996,3,0.005,0.270,10.366,4,-0.158,0.434,-0.207
972162.64117,3,-0.019,0.273,10.366,4,-0.156,0.434,-0.199
972162.64239,3,-0.048,0.280,10.357,4,-0.150,0.427,-0.188
972162.64360,3,-0.084,0.285,10.350,4,-0.150,0.424,-0.178
972162.64482,3,-0.122,0.290,10.340,4,-0.144,0.421,-0.171
972162.64603,3,-0.167,0.285,10.347,5,-8.381,-29.681,9.619
972162.64725,3,-0.206,0.273,10.352,4,-0.140,0.413,-0.163
972162.64846,3,-0.230,0.273,10.354,4,-0.130,0.401,-0.146
972162.64968,3,-0.263,0.268,10.359,4,-0.128,0.394,-0.134
972162.65089,3,-0.299,0.273,10.362,4,-0.125,0.385,-0.126
972162.65211,3,-0.333,0.278,10.362,4,-0.118,0.375,-0.116
972162.65332,3,-0.362,0.268,10.364,4,-0.114,0.365,-0.109
972162.65454,3,-0.386,0.254,10.364,4,-0.108,0.353,-0.102
972162.65575,3,-0.409,0.234,10.362,4,-0.101,0.342,-0.091
972162.65697,3,-0.424,0.225,10.364,4,-0.098,0.329,-0.086,5,-8.213,-29.513,9.731
972162.65818,3,-0.417,0.215,10.369,4,-0.092,0.316,-0.077
972162.65940,3,-0.419,0.206,10.373,4,-0.085,0.301,-0.072
972162.66062,3,-0.431,0.201,10.378,4,-0.079,0.288,-0.065
972162.66183,3,-0.424,0.189,10.386,4,-0.071,0.272,-0.060
972162.66305,3,-0.421,0.182,10.393,4,-0.063,0.255,-0.052
972162.66426,3,-0.431,0.167,10.388,4,-0.057,0.241,-0.046
972162.66548,3,-0.431,0.148,10.381,4,-0.046,0.224,-0.042
972162.66669,3,-0.426,0.139,10.386,4,-0.042,0.207,-0.038,5,-8.231,-29.494,9.788
972162.66791,3,-0.419,0.129,10.398,4,-0.029,0.189,-0.035
972162.66912,3,-0.405,0.108,10.402,4,-0.022,0.172,-0.031
972162.67034,3,-0.381,0.086,10.395,4,-0.011,0.154,-0.028
972162.67155,3,-0.371,0.072,10.383,4,-0.001,0.135,-0.025
972162.67277,3,-0.366,0.053,10.376
972162.67398,3,-0.347,0.043,10.371,4,0.020,0.098,-0.022
972162.67520,3,-0.321,0.038,10.364,4,0.033,0.079,-0.019
972162.67641,3,-0.295,0.031,10.354,4,0.041,0.061,-0.018,5,-8.363,-29.363,9.713
972162.67763,3,-0.273,0.024,10.345,4,0.053,0.041,-0.019
972162.67885,3,-0.242,0.019,10.342,4,0.065,0.023,-0.018
972162.68006,3,-0.211,0.012,10.340,4,0.076,0.004,-0.017
972162.68128,3,-0.184,-0.007,10.335,4,0.090,-0.013,-0.020
972162.68249,3,-0.151,-0.019,10.328,4,0.103,-0.033,-0.021
972162.68371,3,-0.108,-0.026,10.314,4,0.116,-0.054,-0.023
972162.68492,3,-0.069,-0.026,10.311,4,0.129,-0.073,-0.023
972162.68614,3,-0.031,-0.026,10.306
972162.68735,3,-0.005,-0.033,10.295,4,0.154,-0.110,-0.027,5,-8.194,-29.381,9.900
972162.68857,3,0.012,-0.041,10.283,4,0.168,-0.127,-0.030
972162.68978,3,0.038,-0.038,10.263,4,0.185,-0.147,-0.032
972162.69100,3,0.072,-0.026,10.247,4,0.198,-0.162,-0.037
972162.69221,3,0.103,-0.019,10.237,4,0.210,-0.180,-0.040
972162.69343,3,0.132,-0.014,10.218,4,0.225,-0.196,-0.043
972162.69464,3,0.172,-0.007,10.189,4,0.238,-0.213,-0.047
972162.69586,3,0.201,0.007,10.170,4,0.249,-0.225,-0.050
972162.69707,3,0.218,0.012,10.156,4,0.262,-0.242,-0.054
972162.69829,3,0.237,0.014,10.127,4,0.273,-0.256,-0.058,5,-8.006,-29.363,9.750
972162.69951,3,0.256,0.029,10.094,4,0.285,-0.267,-0.060
972162.70072,3,0.278,0.026,10.065
972162.70194,3,0.302,0.017,10.046,4,0.306,-0.292,-0.069
972162.70315,3,0.321,0.012,10.027,4,0.319,-0.306,-0.072
972162.70437,3,0.352,0.014,10.005,4,0.327,-0.317,-0.076
972162.70558,3,0.388,0.005,9.979,4,0.336,-0.328,-0.076
972162.70680,3,0.409,0.002,9.948,4,0.344,-0.337,-0.082,5,-8.006,-29.663,9.675
972162.70801,3,0.436,0.012,9.921,4,0.350,-0.347,-0.086
972162.70923,3,0.455,0.017,9.897,4,0.358,-0.355,-0.088
972162.71044,3,0.462,0.005,9.873,4,0.361,-0.361,-0.093
972162.71166,3,0.488,-0.012,9.840,4,0.369,-0.370,-0.094
972162.71287,3,0.520,-0.014,9.801,4,0.367,-0.371,-0.099
972162.71409,3,0.539,-0.022,9.768,4,0.377,-0.377,-0.102
972162.71530,3,0.560,-0.036,9.730,4,0.377,-0.377,-0.106
972162.71652,3,0.582,-0.041,9.698,4,0.380,-0.379,-0.107,5,-8.006,-29.925,9.675
972162.71774,3,0.608,-0.048,9.667,4,0.378,-0.376,-0.113
972162.71895,3,0.634,-0.060,9.629,4,0.379,-0.377,-0.114
972162.72017,3,0.656,-0.062,9.593,4,0.381,-0.374,-0.119
972162.72138,3,0.673,-0.060,9.557,4,0.377,-0.360,-0.129
972162.72260,3,0.687,-0.065,9.529
972162.72381,3,0.701,-0.062,9.493,4,0.376,-0.354,-0.132
972162.72503,3,0.706,-0.053,9.452,4,0.374,-0.347,-0.134
972162.72624,3,0.704,-0.038,9.411,4,0.372,-0.335,-0.137,5,-7.988,-29.850,9.656
972162.72746,3,0.713,-0.038,9.371
972162.72867,3,0.728,-0.031,9.342,4,0.362,-0.310,-0.145
972162.72989,3,0.728,-0.024,9.318
972162.73110,3,0.730,-0.019,9.294,4,0.352,-0.281,-0.150
972162.73232,3,0.737,-0.007,9.261
972162.73353,3,0.728,0.002,9.229,4,0.347,-0.262,-0.156
972162.73475,3,0.716,0.007,9.196,4,0.328,-0.206,-0.162,5,-7.969,-29.738,9.506
972162.73597,3,0.716,0.017,9.150
972162.73718,3,0.713,0.033,9.107,4,0.316,-0.184,-0.163
972162.73840,3,0.716,0.041,9.078,4,0.308,-0.164,-0.166
972162.73961,3,0.723,0.050,9.059
972162.74083,3,0.725,0.048,9.040,4,0.298,-0.140,-0.168
972162.74204,3,0.723,0.031,9.026,4,0.279,-0.095,-0.173
972162.74326,3,0.706,0.017,9.014,4,0.269,-0.073,-0.177
972162.74447,3,0.677,0.014,8.999
972162.74569,3,0.668,0.012,8.978,4,0.259,-0.054,-0.173
972162.74690,3,0.656,-0.007,8.959,4,0.251,-0.030,-0.178,5,-8.006,-29.794,9.356
972162.74812,3,0.625,-0.017,8.942,4,0.228,0.009,-0.178
972162.74933,3,0.596,-0.002,8.920,4,0.214,0.032,-0.184
972162.75055,3,0.567,0.005,8.899,4,0.204,0.050,-0.185
972162.75176,3,0.536,-0.007,8.887,4,0.190,0.071,-0.189
972162.75298,3,0.517,-0.017,8.885
972162.75419,3,0.498,-0.019,8.880,4,0.177,0.092,-0.187
972162.75541,3,0.476,-0.022,8.865,4,0.150,0.133,-0.195
972162.75663,3,0.460,-0.017,8.861,4,0.131,0.152,-0.195,5,-7.744,-29.681,9.431
972162.75784,3,0.438,-0.017,8.865
972162.75906,3,0.405,-0.026,8.873,4,0.119,0.169,-0.195
972162.76027,3,0.364,-0.026,8.877,4,0.090,0.202,-0.196
972162.76149,3,0.328,-0.026,8.887,4,0.074,0.220,-0.198
972162.76270,3,0.302,-0.019,8.894,4,0.060,0.236,-0.199
972162.76392,3,0.268,-0.010,8.899
972162.76513,3,0.242,-0.005,8.913,4,0.025,0.269,-0.198
972162.76635,3,0.215,0.002,8.930,4,0.011,0.285,-0.198,5,-7.838,-29.719,9.394
972162.76756,3,0.182,0.014,8.947,4,-0.010,0.301,-0.197
972162.76878,3,0.151,0.022,8.961,4,-0.027,0.315,-0.195
972162.76999,3,0.117,0.024,8.973,4,-0.042,0.329,-0.193
972162.77121,3,0.086,0.024,8.987,4,-0.061,0.343,-0.191
972162.77242,3,0.050,0.019,9.014,4,-0.078,0.355,-0.189
972162.77364,3,0.010,0.014,9.050,4,-0.096,0.368,-0.189
972162.77486,3,-0.024,0.019,9.088,4,-0.116,0.380,-0.184
972162.77607,3,-0.053,0.029,9.119,4,-0.128,0.389,-0.181
972162.77729,3,-0.074,0.019,9.148,4,-0.145,0.400,-0.179,5,-7.819,-30.019,9.525
972162.77850,3,-0.100,0.005,9.186,4,-0.162,0.409,-0.173
972162.77972,3,-0.129,0.007,9.227
972162.78093,3,-0.151,0.005,9.258,4,-0.198,0.425,-0.168
972162.78215,3,-0.167,0.000,9.292,4,-0.212,0.433,-0.165
972162.78336,3,-0.184,0.000,9.330
972162.78458,3,-0.215,0.002,9.378,4,-0.229,0.437,-0.163
972162.78579,3,-0.237,0.010,9.418,4,-0.258,0.445,-0.157,5,-7.706,-29.681,9.619
972162.78701,3,-0.244,0.007,9.459,4,-0.270,0.450,-0.153
972162.78822,3,-0.256,0.000,9.517
972162.78944,3,-0.275,-0.007,9.569,4,-0.299,0.450,-0.145
972162.79065,3,-0.297,-0.014,9.607,4,-0.313,0.450,-0.143
972162.79187,3,-0.314,-0.017,9.655,4,-0.324,0.446,-0.137
972162.79308,3,-0.338,-0.014,9.708
972162.79430,3,-0.352,-0.010,9.753,4,-0.344,0.441,-0.133
972162.79552,3,-0.364,-0.012,9.797,4,-0.353,0.437,-0.129
972162.79673,3,-0.366,-0.010,9.847,4,-0.361,0.433,-0.124,5,-7.706,-29.588,9.488
972162.79795,3,-0.376,-0.010,9.902
972162.79916,3,-0.393,-0.010,9.950,4,-0.375,0.419,-0.118
972162.80038,3,-0.398,0.002,9.995,4,-0.378,0.412,-0.118
972162.80159,3,-0.414,0.012,10.038
972162.80281,3,-0.431,0.017,10.079,4,-0.389,0.399,-0.110
972162.80402,3,-0.441,0.026,10.120
972162.80524,3,-0.448,0.045,10.170,4,-0.388,0.390,-0.112
972162.80645,3,-0.455,0.062,10.220,4,-0.392,0.368,-0.104,5,-7.650,-29.550,9.431
972162.80767,3,-0.462,0.074,10.268
972162.80888,3,-0.462,0.084,10.314,4,-0.386,0.356,-0.102
972162.81010,3,-0.467,0.100,10.362,4,-0.386,0.327,-0.090
972162.81131,3,-0.476,0.122,10.402,4,-0.377,0.312,-0.085
972162.81253,3,-0.498,0.139,10.436,4,-0.376,0.296,-0.079
972162.81375,3,-0.517,0.158,10.465
972162.81496,3,-0.517,0.182,10.489,4,-0.368,0.263,-0.066
972162.81618,3,-0.524,0.201,10.508,4,-0.361,0.244,-0.059,5,-7.725,-29.756,9.563
972162.81739,3,-0.532,0.211,10.517,4,-0.353,0.226,-0.048
972162.81861,3,-0.534,0.232,10.527
972162.81982,3,-0.532,0.249,10.539,4,-0.337,0.189,-0.035
972162.82104,3,-0.536,0.263,10.553,4,-0.325,0.168,-0.030
972162.82225,3,-0.534,0.268,10.560,4,-0.311,0.150,-0.023
972162.82347,3,-0.520,0.270,10.556,4,-0.295,0.133,-0.016
972162.82468,3,-0.508,0.278,10.553,4,-0.283,0.112,-0.011
972162.82590,3,-0.496,0.285,10.551
972162.82711,3,-0.481,0.299,10.553,4,-0.252,0.079,0.001,5,-7.594,-29.663,9.656
972162.82833,3,-0.462,0.316,10.558,4,-0.231,0.059,0.005
972162.82954,3,-0.450,0.328,10.558,4,-0.217,0.040,0.011
972162.83076,3,-0.443,0.340,10.563
972162.83198,3,-0.438,0.342,10.568,4,-0.180,0.001,0.023
972162.83319,3,-0.417,0.354,10.568,4,-0.158,-0.017,0.026
972162.83441,3,-0.395,0.374,10.558,4,-0.138,-0.040,0.031
972162.83562,3,-0.388,0.402,10.534,4,-0.121,-0.057,0.038
972162.83684,3,-0.371,0.431,10.505,5,-7.631,-30.000,9.600
972162.83805,3,-0.350,0.455,10.469,4,-0.100,-0.078,0.046
972162.83927,3,-0.333,0.476,10.429,4,-0.052,-0.117,0.057
972162.84048,3,-0.319,0.488,10.391,4,-0.032,-0.134,0.060
972162.84170,3,-0.297,0.510,10.359,4,-0.012,-0.150,0.066
972162.84291,3,-0.278,0.536,10.328,4,0.009,-0.166,0.069
972162.84413,3,-0.268,0.558,10.283,4,0.034,-0.183,0.076
972162.84534,3,-0.246,0.579,10.235,4,0.054,-0.198,0.079
972162.84656,3,-0.215,0.591,10.196,4,0.074,-0.212,0.082,5,-7.519,-30.356,9.563
972162.84777,3,-0.179,0.610,10.151
972162.84899,3,-0.146,0.625,10.105,4,0.096,-0.228,0.089
972162.85020,3,-0.117,0.632,10.062,4,0.117,-0.241,0.092
972162.85142,3,-0.086,0.644,10.024,4,0.157,-0.270,0.098
972162.85264,3,-0.050,0.654,9.991,4,0.177,-0.286,0.100
972162.85385,3,-0.010,0.658,9.948,4,0.194,-0.300,0.105
972162.85507,3,0.019,0.666,9.890
972162.85628,3,0.048,0.680,9.833,4,0.214,-0.310,0.107,5,-7.331,-30.188,9.488
972162.85750,3,0.091,0.689,9.768,4,0.250,-0.335,0.111
972162.85871,3,0.127,0.697,9.701,4,0.264,-0.343,0.111
972162.85993,3,0.153,0.713,9.641,4,0.282,-0.353,0.113
972162.86114,3,0.158,0.725,9.572,4,0.297,-0.362,0.115
972162.86236,3,0.156,0.728,9.495
972162.86357,3,0.160,0.730,9.416,4,0.312,-0.368,0.113
972162.86479,3,0.172,0.723,9.339,4,0.335,-0.373,0.114
972162.86600,3,0.189,0.718,9.275,5,-7.275,-30.300,9.356
972162.86722,3,0.218,0.721,9.224,4,0.347,-0.376,0.113
972162.86843,3,0.261,0.706,9.181,4,0.366,-0.379,0.115
972162.86965,3,0.297,0.697,9.141,4,0.372,-0.377,0.112
972162.87087,3,0.323,0.701,9.105,4,0.377,-0.383,0.113
972162.87208,3,0.338,0.706,9.062,4,0.385,-0.385,0.115
972162.87330,3,0.342,0.711,9.002
972162.87451,3,0.352,0.725,8.949,4,0.389,-0.390,0.112
972162.87573,3,0.378,0.752,8.908,4,0.396,-0.391,0.113,5,-7.106,-30.356,9.619
972162.87694,3,0.398,0.778,8.870,4,0.402,-0.393,0.112
972162.87816,3,0.407,0.790,8.830
972162.87937,3,0.431,0.802,8.791,4,0.408,-0.402,0.112
972162.88059,3,0.455,0.807,8.753,4,0.409,-0.407,0.111
972162.88180,3,0.474,0.802,8.715,4,0.407,-0.412,0.108
972162.88302,3,0.491,0.804,8.671,4,0.405,-0.414,0.109
972162.88423,3,0.503,0.814,8.633,4,0.402,-0.415,0.109
972162.88545,3,0.508,0.831,8.590
972162.88666,3,0.510,0.845,8.535,4,0.395,-0.422,0.106,5,-6.994,-30.244,9.750
972162.88788,3,0.512,0.860,8.482,4,0.392,-0.423,0.105
972162.88909,3,0.527,0.876,8.439,4,0.388,-0.426,0.101
972162.89031,3,0.541,0.893,8.406,4,0.376,-0.422,0.098
972162.89153,3,0.546,0.891,8.379,4,0.369,-0.422,0.097
972162.89274,3,0.551,0.884,8.355,4,0.367,-0.423,0.096
972162.89396,3,0.558,0.879,8.334,4,0.357,-0.417,0.091
972162.89517,3,0.563,0.881,8.317,4,0.349,-0.418,0.091
972162.89639,3,0.565,0.884,8.308,4,0.340,-0.417,0.087,5,-7.050,-30.000,9.638
972162.89760,3,0.570,0.886,8.296,4,0.330,-0.412,0.084
972162.89882,3,0.563,0.893,8.281,4,0.321,-0.409,0.082
972162.90003,3,0.555,0.893,8.267,4,0.307,-0.407,0.078
972162.90125,3,0.555,0.896,8.253,4,0.298,-0.402,0.075
972162.90246,3,0.548,0.907,8.248
972162.90368,3,0.543,0.915,8.253,4,0.284,-0.397,0.072
972162.90489,3,0.543,0.915,8.262,4,0.270,-0.393,0.070
972162.90611,3,0.539,0.912,8.274,4,0.246,-0.383,0.061,5,-6.975,-29.981,9.694
972162.90732,3,0.505,0.905,8.286,4,0.232,-0.377,0.060
972162.90854,3,0.479,0.896,8.286,4,0.218,-0.367,0.056
972162.90976,3,0.460,0.884,8.284,4,0.199,-0.355,0.051
972162.91097,3,0.443,0.860,8.284,4,0.188,-0.346,0.048
972162.91219,3,0.441,0.821,8.291,4,0.173,-0.333,0.046
972162.91340,3,0.448,0.788,8.320
972162.91462,3,0.474,0.764,8.353,4,0.155,-0.317,0.044
972162.91583,3,0.517,0.759,8.389,4,0.138,-0.304,0.047
972162.91705,3,0.551,0.766,8.425,4,0.125,-0.288,0.044,5,-7.031,-29.869,9.675
972162.91826,3,0.577,0.783,8.458,4,0.110,-0.272,0.050
972162.91948,3,0.603,0.797,8.489,4,0.097,-0.258,0.052
972162.92069,3,0.608,0.807,8.521,4,0.081,-0.239,0.052
972162.92191,3,0.596,0.823,8.559,4,0.064,-0.223,0.053
972162.92312,3,0.567,0.831,8.592,4,0.053,-0.211,0.056
972162.92434,3,0.536,0.833,8.614,4,0.026,-0.184,0.057
972162.92555,3,0.510,0.838,8.623,4,0.010,-0.176,0.058
972162.92677,3,0.474,0.838,8.635,4,-0.005,-0.170,0.057,5,-7.144,-29.606,9.881
972162.92799,3,0.441,0.821,8.650,4,-0.014,-0.164,0.055
972162.92920,3,0.405,0.809,8.659,4,-0.030,-0.157,0.056
972162.93042,3,0.386,0.807,8.669,4,-0.046,-0.151,0.050
972162.93163,3,0.374,0.807,8.683,4,-0.060,-0.148,0.050
972162.93285,3,0.362,0.804,8.695
972162.93406,3,0.364,0.788,8.683,4,-0.092,-0.136,0.047
972162.93528,3,0.364,0.764,8.664,4,-0.106,-0.127,0.046
972162.93649,3,0.362,0.756,8.659,4,-0.121,-0.117,0.039,5,-7.500,-29.494,10.125
972162.93771,3,0.354,0.752,8.655,4,-0.133,-0.106,0.038
972162.93892,3,0.352,0.749,8.650
972162.94014,3,0.364,0.756,8.655,4,-0.149,-0.090,0.035
972162.94135,3,0.359,0.761,8.671,4,-0.165,-0.078,0.029
972162.94257,3,0.359,0.759,8.693,4,-0.195,-0.050,0.021
972162.94378,3,0.374,0.759,8.717,4,-0.206,-0.034,0.016
972162.94500,3,0.376,0.759,8.758,4,-0.219,-0.018,0.012
972162.94621,3,0.376,0.752,8.808,4,-0.231,-0.007,0.007,5,-7.538,-29.381,10.256
972162.94743,3,0.381,0.747,8.853,4,-0.244,0.010,-0.000
972162.94865,3,0.383,0.761,8.901
972162.94986,3,0.390,0.776,8.959,4,-0.265,0.031,-0.007
972162.95108,3,0.402,0.771,9.009,4,-0.276,0.041,-0.011
972162.95229,3,0.421,0.768,9.052,4,-0.288,0.050,-0.018
972162.95351,3,0.429,0.764,9.098,4,-0.295,0.059,-0.021
972162.95472,3,0.429,0.759,9.148
972162.95594,3,0.429,0.756,9.184,4,-0.314,0.075,-0.028,5,-7.669,-29.381,9.994
972162.95715,3,0.433,0.764,9.210,4,-0.319,0.085,-0.032
972162.95837,3,0.455,0.783,9.243
972162.95958,3,0.469,0.792,9.268,4,-0.328,0.103,-0.039
972162.96080,3,0.486,0.792,9.299,4,-0.333,0.112,-0.042
972162.96201,3,0.503,0.790,9.332,4,-0.338,0.120,-0.046
972162.96323,3,0.510,0.792,9.351,4,-0.342,0.128,-0.048
972162.96444,3,0.508,0.797,9.373,4,-0.339,0.135,-0.052
972162.96566,3,0.505,0.792,9.395,4,-0.339,0.141,-0.053
972162.96688,3,0.510,0.797,9.411,4,-0.342,0.149,-0.055,5,-7.781,-29.456,9.919
972162.96809,3,0.505,0.814,9.428,4,-0.339,0.160,-0.058
972162.96931,3,0.496,0.826,9.457,4,-0.343,0.170,-0.060
972162.97052,3,0.488,0.828,9.476,4,-0.339,0.177,-0.063
972162.97174,3,0.486,0.833,9.490,4,-0.337,0.181,-0.064
972162.97295,3,0.481,0.848,9.512
972162.97417,3,0.479,0.845,9.531,4,-0.330,0.201,-0.069
972162.97538,3,0.474,0.845,9.548
972162.97660,3,0.460,0.848,9.574,4,-0.325,0.214,-0.070,5,-7.688,-29.456,9.844
972162.97781,3,0.450,0.848,9.588
972162.97903,3,0.436,0.848,9.598,4,-0.326,0.223,-0.072
972162.98024,3,0.421,0.840,9.615,4,-0.319,0.237,-0.073
972162.98146,3,0.407,0.831,9.634,4,-0.315,0.243,-0.074
972162.98267,3,0.395,0.831,9.648,4,-0.311,0.249,-0.076
972162.98389,3,0.376,0.838,9.660,4,-0.306,0.254,-0.074
972162.98510,3,0.362,0.833,9.674,4,-0.303,0.262,-0.076
972162.98632,3,0.354,0.835,9.686,4,-0.297,0.266,-0.076,5,-7.744,-29.456,9.844
972162.98754,3,0.347,0.845,9.703,4,-0.294,0.272,-0.078
972162.98875,3,0.328,0.838,9.722,4,-0.291,0.277,-0.078
972162.98997,3,0.309,0.840,9.737,4,-0.287,0.283,-0.077
972162.99118,3,0.285,0.845,9.746,4,-0.283,0.285,-0.078
972162.99240,3,0.266,0.852,9.753,4,-0.279,0.289,-0.079
972162.99361,3,0.251,0.857,9.765,4,-0.277,0.291,-0.077
972162.99483,3,0.227,0.857,9.782,4,-0.272,0.293,-0.077
972162.99604,3,0.201,0.864,9.797,4,-0.265,0.295,-0.074
972162.99726,3,0.167,0.879,9.804,4,-0.262,0.292,-0.072,5,-7.519,-29.269,9.769
972162.99847,3,0.148,0.886,9.813,4,-0.261,0.295,-0.069
972162.99969,3,0.141,0.896,9.823,4,-0.258,0.293,-0.069
972163.00090,3,0.122,0.893,9.830,4,-0.256,0.293,-0.068
972163.00212,3,0.112,0.876,9.837,4,-0.250,0.290,-0.066
972163.00333,3,0.108,0.869,9.852,4,-0.247,0.287,-0.061
972163.00455,3,0.093,0.869,9.864,4,-0.245,0.285,-0.063
972163.00577,3,0.086,0.860,9.864,4,-0.241,0.276,-0.055
972163.00698,3,0.084,0.843,9.869,4,-0.239,0.274,-0.056,5,-7.163,-29.063,9.731
972163.00820,3,0.086,0.838,9.881
972163.00941,3,0.089,0.835,9.895,4,-0.234,0.260,-0.052
972163.01063,3,0.086,0.835,9.900,4,-0.233,0.254,-0.052
972163.01184,3,0.077,0.833,9.897
972163.01306,3,0.057,0.823,9.904,4,-0.230,0.244,-0.050
972163.01427,3,0.036,0.809,9.914,4,-0.227,0.235,-0.049
972163.01549,3,0.026,0.807,9.924,4,-0.222,0.218,-0.048
972163.01670,3,0.017,0.814,9.933,4,-0.218,0.208,-0.046,5,-6.994,-29.194,9.600
972163.01792,3,0.002,0.821,9.945,4,-0.217,0.202,-0.047
972163.01913,3,-0.007,0.828,9.955,4,-0.213,0.191,-0.047
972163.02035,3,-0.019,0.831,9.964,4,-0.210,0.184,-0.042
972163.02156,3,-0.036,0.831,9.971
972163.02278,3,-0.033,0.833,9.964,4,-0.206,0.174,-0.042
972163.02400,3,-0.033,0.835,9.964,4,-0.196,0.155,-0.035
972163.02521,3,-0.055,0.831,9.971,4,-0.190,0.146,-0.035
972163.02643,3,-0.072,0.831,9.979,5,-7.144,-29.438,9.581
972163.02764,3,-0.084,0.848,9.983,4,-0.189,0.142,-0.032
972163.02886,3,-0.093,0.860,9.993,4,-0.183,0.136,-0.031
972163.03007,3,-0.098,0.852,10.000,4,-0.169,0.119,-0.026
972163.03129,3,-0.105,0.835,10.007,4,-0.162,0.113,-0.022
972163.03250,3,-0.117,0.831,10.015
972163.03372,3,-0.120,0.835,10.012,4,-0.151,0.104,-0.021
972163.03493,3,-0.122,0.828,10.015,4,-0.138,0.092,-0.014
972163.03615,3,-0.134,0.819,10.022,4,-0.133,0.086,-0.011,5,-7.069,-29.456,9.694
972163.03736,3,-0.141,0.821,10.024,4,-0.121,0.079,-0.005
972163.03858,3,-0.139,0.826,10.031,4,-0.112,0.075,-0.002
972163.03979,3,-0.136,0.826,10.034,4,-0.102,0.068,0.002
972163.04101,3,-0.127,0.816,10.029,4,-0.091,0.064,0.004
972163.04222,3,-0.115,0.816,10.029,4,-0.082,0.057,0.005
972163.04344,3,-0.105,0.828,10.031,4,-0.071,0.051,0.010
972163.04466,3,-0.100,0.840,10.031,4,-0.059,0.047,0.014
972163.04587,3,-0.103,0.840,10.022,4,-0.046,0.040,0.015
972163.04709,3,-0.105,0.845,10.007,4,-0.036,0.034,0.017,5,-7.069,-29.363,9.450
972163.04830,3,-0.110,0.862,10.003,4,-0.022,0.029,0.022
972163.04952,3,-0.103,0.874,9.998,4,-0.006,0.022,0.025
972163.05073,3,-0.086,0.884,9.981,4,0.001,0.022,0.029
972163.05195,3,-0.069,0.896,9.964,4,0.015,0.016,0.031
972163.05316,3,-0.065,0.910,9.945,4,0.026,0.014,0.036
972163.05438,3,-0.055,0.922,9.928
972163.05559,3,-0.033,0.931,9.916,4,0.039,0.008,0.038
972163.05681,3,-0.019,0.939,9.890,4,0.048,0.001,0.042,5,-7.181,-29.381,9.206
972163.05802,3,-0.012,0.946,9.869,4,0.073,-0.006,0.050
972163.05924,3,-0.002,0.948,9.854,4,0.085,-0.007,0.053
972163.06045,3,0.007,0.953,9.830,4,0.098,-0.014,0.055
972163.06167,3,0.017,0.965,9.811,4,0.110,-0.018,0.061
972163.06289,3,0.031,0.965,9.789
972163.06410,3,0.033,0.963,9.753,4,0.129,-0.029,0.067
972163.06532,3,0.045,0.982,9.720,4,0.140,-0.032,0.071
972163.06653,3,0.057,0.998,9.689,4,0.149,-0.038,0.073,5,-7.219,-29.419,8.963
972163.06775,3,0.069,1.010,9.663
972163.06896,3,0.084,1.022,9.641,4,0.161,-0.046,0.081
972163.07018,3,0.089,1.030,9.619,4,0.175,-0.054,0.086
972163.07139,3,0.093,1.027,9.588,4,0.184,-0.057,0.091
972163.07261,3,0.093,1.025,9.552,4,0.191,-0.063,0.093
972163.07382,3,0.100,1.025,9.524
972163.07504,3,0.115,1.027,9.500,4,0.196,-0.067,0.098
972163.07625,3,0.122,1.032,9.476,4,0.208,-0.074,0.102,5,-7.481,-29.419,8.831
972163.07747,3,0.129,1.027,9.452,4,0.213,-0.079,0.107
972163.07868,3,0.144,1.037,9.426,4,0.218,-0.082,0.108
972163.07990,3,0.163,1.037,9.397
972163.08112,3,0.170,1.022,9.375,4,0.225,-0.088,0.113
972163.08233,3,0.177,1.015,9.356,4,0.226,-0.090,0.115
972163.08355,3,0.191,1.018,9.332,4,0.230,-0.095,0.119
972163.08476,3,0.203,1.015,9.306,4,0.228,-0.096,0.121
972163.08598,3,0.208,1.013,9.289,4,0.228,-0.098,0.121,5,-7.688,-29.438,8.738
972163.08719,3,0.218,1.013,9.275,4,0.231,-0.101,0.122
972163.08841,3,0.225,1.006,9.258,4,0.228,-0.103,0.126
972163.08962,3,0.239,0.998,9.246,4,0.226,-0.106,0.127
972163.09084,3,0.258,0.996,9.239,4,0.226,-0.109,0.129
972163.09205,3,0.266,0.986,9.232,4,0.221,-0.109,0.128
972163.09327,3,0.268,0.982,9.212,4,0.220,-0.112,0.132
972163.09448,3,0.263,0.984,9.191
972163.09570,3,0.249,0.986,9.169,4,0.215,-0.111,0.130
972163.09691,3,0.258,0.984,9.143,4,0.206,-0.115,0.133,5,-7.613,-29.381,8.850
972163.09813,3,0.273,0.974,9.126,4,0.202,-0.117,0.132
972163.09934,3,0.280,0.960,9.126,4,0.197,-0.115,0.131
972163.10056,3,0.283,0.948,9.121,4,0.190,-0.113,0.134
972163.10178,3,0.283,0.939,9.121,4,0.184,-0.114,0.132
972163.10299,3,0.285,0.931,9.124,4,0.182,-0.115,0.133
972163.10421,3,0.292,0.927,9.129,4,0.173,-0.115,0.135
972163.10542,3,0.295,0.922,9.136
972163.10664,3,0.307,0.915,9.138,4,0.163,-0.112,0.132,5,-7.331,-29.213,8.963
972163.10785,3,0.321,0.917,9.131,4,0.152,-0.110,0.134
972163.10907,3,0.328,0.919,9.121,4,0.146,-0.110,0.131
972163.11028,3,0.331,0.915,9.124,4,0.140,-0.109,0.130
972163.11150,3,0.333,0.905,9.131,4,0.132,-0.107,0.132
972163.11271,3,0.338,0.888,9.136,4,0.130,-0.105,0.130
972163.11393,3,0.335,0.876,9.155,4,0.121,-0.105,0.129
972163.11514,3,0.331,0.867,9.179,4,0.110,-0.101,0.127
972163.11636,3,0.328,0.864,9.196,4,0.108,-0.101,0.127,5,-7.406,-29.025,8.906
972163.11757,3,0.328,0.867,9.208
972163.11879,3,0.323,0.862,9.227,4,0.102,-0.100,0.126
972163.12001,3,0.316,0.852,9.243,4,0.091,-0.096,0.122
972163.12122,3,0.316,0.835,9.261,4,0.081,-0.096,0.122
972163.12244,3,0.314,0.833,9.268
972163.12365,3,0.309,0.828,9.275,4,0.078,-0.093,0.124
972163.12487,3,0.314,0.807,9.289,4,0.066,-0.088,0.124
972163.12608,3,0.307,0.800,9.313,4,0.058,-0.085,0.119,5,-7.613,-29.250,8.925
972163.12730,3,0.292,0.804,9.337
972163.12851,3,0.285,0.800,9.366,4,0.047,-0.084,0.119
972163.12973,3,0.285,0.797,9.395,4,0.043,-0.084,0.119
972163.13094,3,0.275,0.802,9.416
972163.13216,3,0.268,0.800,9.438,4,0.030,-0.082,0.117
972163.13337,3,0.258,0.788,9.457,4,0.020,-0.085,0.118
972163.13459,3,0.244,0.783,9.481,4,0.017,-0.085,0.116
972163.13580,3,0.244,0.778,9.509
972163.13702,3,0.246,0.766,9.529,4,0.009,-0.085,0.115,5,-7.688,-29.231,9.244
972163.13823,3,0.239,0.764,9.540,4,0.000,-0.082,0.115
972163.13945,3,0.242,0.756,9.562,4,-0.005,-0.083,0.114
972163.14067,3,0.254,0.744,9.586,4,-0.009,-0.082,0.115
972163.14188,3,0.263,0.728,9.600,4,-0.013,-0.083,0.111
972163.14310,3,0.268,0.723,9.617,4,-0.020,-0.084,0.114
972163.14431,3,0.273,0.721,9.641,4,-0.022,-0.085,0.111
972163.14553,3,0.278,0.721,9.658,4,-0.025,-0.084,0.111
972163.14674,3,0.280,0.718,9.677,4,-0.030,-0.084,0.112,5,-7.669,-29.063,9.263
972163.14796,3,0.283,0.699,9.698,4,-0.038,-0.083,0.111
972163.14917,3,0.297,0.682,9.710,4,-0.041,-0.078,0.109
972163.15039,3,0.319,0.673,9.725,4,-0.043,-0.078,0.110
972163.15160,3,0.331,0.666,9.730,4,-0.043,-0.077,0.110
972163.15282,3,0.340,0.666,9.734
972163.15403,3,0.350,0.663,9.737,4,-0.048,-0.069,0.107
972163.15525,3,0.362,0.651,9.741,4,-0.051,-0.063,0.107
972163.15646,3,0.374,0.654,9.753,4,-0.054,-0.061,0.107,5,-7.500,-29.063,9.300
972163.15768,3,0.395,0.666,9.775,4,-0.055,-0.056,0.107
972163.15890,3,0.412,0.673,9.797,4,-0.055,-0.051,0.108
972163.16011,3,0.426,0.668,9.811,4,-0.057,-0.048,0.107
972163.16133,3,0.438,0.649,9.828,4,-0.057,-0.043,0.105
972163.16254,3,0.443,0.632,9.845,4,-0.056,-0.037,0.105
972163.16376,3,0.453,0.627,9.857,4,-0.060,-0.030,0.107
972163.16497,3,0.460,0.622,9.866,4,-0.059,-0.023,0.107
972163.16619,3,0.462,0.622,9.881,4,-0.058,-0.017,0.106,5,-7.613,-29.269,9.319
972163.16740,3,0.472,0.625,9.893,4,-0.054,-0.013,0.105
972163.16862,3,0.486,0.625,9.916,4,-0.054,-0.005,0.107
972163.16983,3,0.510,0.620,9.940,4,-0.051,0.002,0.106
972163.17105,3,0.524,0.622,9.955,4,-0.050,0.004,0.106
972163.17226,3,0.527,0.627,9.971,4,-0.048,0.013,0.107
972163.17348,3,0.529,0.632,9.993,4,-0.043,0.028,0.103
972163.17469,3,0.536,0.639,10.015
972163.17591,3,0.539,0.646,10.034,4,-0.038,0.032,0.105
972163.17713,3,0.536,0.649,10.046,4,-0.032,0.038,0.104,5,-7.781,-29.363,9.188
972163.17834,3,0.527,0.642,10.055,4,-0.030,0.043,0.104
972163.17956,3,0.520,0.644,10.062,4,-0.028,0.052,0.104
972163.18077,3,0.520,0.654,10.070,4,-0.024,0.056,0.104
972163.18199,3,0.529,0.656,10.065,4,-0.019,0.063,0.102
972163.18320,3,0.534,0.654,10.065,4,-0.015,0.069,0.103
972163.18442,3,0.536,0.654,10.074,4,-0.013,0.079,0.105
972163.18563,3,0.543,0.654,10.077,4,-0.008,0.082,0.105
972163.18685,3,0.551,0.654,10.089,4,-0.002,0.087,0.105,5,-7.988,-29.438,9.038
972163.18806,3,0.541,0.661,10.096,4,0.004,0.090,0.105
972163.18928,3,0.539,0.666,10.096
