timestamp, accel, accelX, accelY, accelZ, gyro, gyroX, gyroY, gyroZ, magno, magnoX, magnoY, magnoZ
162530.47259, 3,  -0.862,  1.280,  9.083
162530.49204, 3,  -0.759,  1.046,  9.505, 4,  -0.242, -0.144, -0.179
162530.51148, 3,  -0.728,  0.822,  9.780, 4,  -0.243, -0.393, -0.191, 5,  28.256, -2.906,  9.263
162530.53093, 3,  -0.700,  0.505,  9.524, 4,  -0.080, -0.580, -0.204, 5,  29.138, -2.119,  9.506
162530.55038, 3,  -0.543,  1.018,  8.875, 4,   0.208, -0.608, -0.203, 5,  28.838, -2.644, 10.106
162530.56982, 3,  -0.291,  1.365,  8.649, 4,   0.296, -0.551, -0.143, 5,  28.706, -2.700, 10.200
162530.58927, 3,  -0.227,  1.294,  8.703, 4,   0.172, -0.588, -0.057, 5,  28.763, -2.944,  9.956
162530.60871, 3,  -0.309,  1.143,  8.947, 4,  -0.100, -0.644, -0.090, 5,  29.119, -2.963,  9.656
162530.62816, 3,  -0.006,  1.128,  9.184, 4,  -0.545, -0.709, -0.184, 5,  29.269, -3.075,  9.469
162530.64760, 3,   0.497,  1.202,  9.980, 4,  -0.946, -0.557, -0.259, 5,  29.419, -3.056,  9.319
162530.66705, 3,   0.660,  1.046, 10.394, 4,  -1.134, -0.284, -0.280, 5,  29.700, -3.038,  9.150
162530.68650, 3,   0.354,  0.880, 10.344, 4,  -1.066, -0.053, -0.223, 5,  29.906, -3.319,  8.888
162530.70594, 3,  -0.095,  0.674, 10.486, 4,  -0.883,  0.094, -0.090, 5,  30.150, -3.244,  8.494
162530.72539, 3,   0.014,  0.344, 10.395, 4,  -0.720,  0.065,  0.045, 5,  30.263, -3.431,  8.063
162530.74483, 3,   0.196,  0.254, 10.133, 4,  -0.576,  0.005,  0.083, 5,  30.469, -3.413,  7.631
162530.76428, 3,   0.227,  0.280, 10.321, 4,  -0.444,  0.075,  0.036, 5,  30.413, -3.450,  7.538
162530.78372, 3,   0.197,  0.455, 10.397, 4,  -0.336,  0.075, -0.053, 5,  30.394, -3.563,  7.331
162530.80317, 3,   0.122,  0.332, 10.356, 4,  -0.201, -0.005, -0.109, 5,  30.413, -3.731,  7.350
162530.82262, 3,   0.123,  0.279, 10.016, 4,  -0.074, -0.100, -0.124, 5,  30.338, -3.938,  7.313
162530.84206, 3,   0.147,  0.229,  9.958, 4,   0.017, -0.119, -0.089, 5,  30.075, -3.844,  7.031
162530.86151, 3,   0.200,  0.291,  9.802, 4,   0.036, -0.113, -0.055, 5,  29.981, -3.844,  6.975
162530.88095, 3,   0.293,  0.170,  9.597, 4,   0.001, -0.118, -0.017, 5,  30.075, -3.656,  6.919
162530.90040, 3,   0.307,  0.146,  9.426, 4,  -0.056, -0.084, -0.005, 5,  30.113, -3.844,  7.163
162530.91984, 3,   0.341,  0.102,  9.422, 4,  -0.120, -0.023, -0.010, 5,  29.963, -3.863,  7.406
162530.93929, 3,   0.135,  0.089,  9.624, 4,  -0.171,  0.022, -0.024, 5,  29.888, -3.656,  7.425
162530.95873, 3,   0.106,  0.078,  9.988, 4,  -0.202,  0.033, -0.022, 5,  29.644, -3.900,  7.313
162530.97818, 3,   0.236, -0.028, 10.212, 4,  -0.182, -0.006, -0.010, 5,  29.625, -4.013,  7.200
162530.99763, 3,   0.193, -0.029, 10.040, 4,  -0.112, -0.004, -0.006, 5,  29.775, -4.181,  7.219
162531.01707, 3,   0.218, -0.011,  9.691, 4,  -0.046, -0.006,  0.004, 5,  29.831, -4.238,  7.181
162531.03652, 3,   0.237, -0.062,  9.493, 4,  -0.029, -0.018,  0.009, 5,  29.869, -4.275,  7.031
162531.05596, 3,   0.281, -0.214,  9.535, 4,  -0.061, -0.026,  0.005, 5,  29.944, -4.088,  6.863
162531.07541, 3,   0.257, -0.302,  9.704, 4,  -0.099,  0.008,  0.004, 5,  30.094, -4.238,  6.544
162531.09485, 3,   0.261, -0.310,  9.823, 4,  -0.114,  0.029,  0.015
162531.11430, 3,   0.290, -0.325,  9.813, 4,  -0.104,  0.026,  0.019, 5,  30.225, -4.538,  6.544
162531.13375, 3,   0.305, -0.221,  9.829, 4,  -0.080,  0.002,  0.015, 5,  30.469, -4.444,  6.450
162531.15319, 3,   0.332, -0.223,  9.867, 4,  -0.059, -0.018,  0.002, 5,  30.488, -4.369,  6.488
162531.17264, 3,   0.323, -0.268,  9.845, 4,  -0.034, -0.041, -0.019, 5,  30.506, -4.200,  6.600
162531.19208, 3,   0.341, -0.160,  9.932, 4,  -0.004, -0.062, -0.027, 5,  30.713, -4.275,  6.600
162531.21153, 3,   0.454, -0.067, 10.041, 4,   0.036, -0.077, -0.019, 5,  30.806, -4.594,  6.694
162531.23097, 3,   0.463, -0.079,  9.864, 4,   0.108, -0.101, -0.023, 5,  30.619, -4.650,  6.769
162531.25042, 3,   0.363, -0.048,  9.500, 4,   0.181, -0.100, -0.042, 5,  30.469, -4.650,  6.675
162531.26986, 3,   0.193, -0.127,  9.106, 4,   0.204, -0.054, -0.049, 5,  30.619, -4.444,  6.619
162531.28931, 3,   0.449,  0.189,  9.145, 4,   0.138, -0.050, -0.029, 5,  30.563, -4.181,  6.356
162531.30876, 3,   0.467,  0.177,  9.001, 4,   0.041, -0.106,  0.004, 5,  30.431, -4.088,  6.281
162531.32820, 3,   0.466, -0.055,  9.144, 4,  -0.051, -0.087,  0.023, 5,  30.356, -4.200,  6.413
162531.34765, 3,   0.521, -0.083,  9.167, 4,  -0.136, -0.018,  0.026, 5,  30.225, -4.106,  6.113
162531.36709, 3,   0.450, -0.091,  9.298, 4,  -0.171,  0.036,  0.025, 5,  30.206, -3.994,  6.000
162531.38654, 3,   0.448, -0.016,  9.521, 4,  -0.189,  0.045,  0.021, 5,  30.131, -4.050,  5.925
162531.40598, 3,   0.637, -0.063,  9.895, 4,  -0.211,  0.006,  0.031, 5,  30.394, -4.031,  6.131
162531.42543, 3,   0.620, -0.036, 10.104, 4,  -0.102,  0.007,  0.033, 5,  30.113, -4.050,  6.019
162531.44488, 3,   0.640,  0.089,  9.893, 4,   0.070,  0.024,  0.028, 5,  30.113, -4.331,  6.356
162531.46432, 3,   0.695,  0.117,  9.587, 4,   0.190,  0.053,  0.031, 5,  30.356, -4.406,  6.206
162531.48377, 3,   0.692,  0.122,  9.452, 4,   0.218,  0.094,  0.022, 5,  30.600, -4.406,  6.094
162531.50321, 3,   0.666,  0.152,  9.563, 4,   0.179,  0.087, -0.011, 5,  30.656, -4.425,  6.300
162531.52266, 3,   0.807,  0.151,  9.795, 4,   0.095,  0.026, -0.025, 5,  30.656, -4.388,  6.394
162531.54210, 3,   1.070,  0.279, 10.103, 4,  -0.016, -0.069,  0.007, 5,  30.975, -4.294,  6.338
162531.56155, 3,   1.204,  0.175, 10.126, 4,  -0.099, -0.146,  0.073, 5,  30.919, -4.106,  6.244
162531.58100, 3,   1.191,  0.227, 10.216, 4,  -0.128, -0.102,  0.119, 5,  30.994, -4.088,  6.300
162531.60044, 3,   1.041,  0.426,  9.930, 4,  -0.025, -0.024,  0.079, 5,  30.900, -3.956,  5.813
162531.61989, 3,   0.875,  0.688,  9.678, 4,   0.064,  0.041,  0.035, 5,  30.806, -3.769,  6.019
162531.63933, 3,   0.725,  0.866,  9.503, 4,   0.084,  0.049,  0.019, 5,  30.619, -3.769,  5.888
162531.65878, 3,   0.729,  0.972,  9.499, 4,   0.055,  0.017,  0.030, 5,  30.431, -3.881,  5.625
162531.67822, 3,   0.733,  0.971,  9.416, 4,   0.025,  0.004,  0.043, 5,  30.319, -4.013,  5.700
162531.69767, 3,   0.655,  0.928,  9.406, 4,   0.003, -0.001,  0.045, 5,  30.094, -4.106,  5.663
162531.71711, 3,   0.454,  0.796,  9.454, 4,  -0.029,  0.021,  0.039, 5,  29.888, -4.256,  5.794
162531.73656, 3,   0.316,  0.570,  9.414, 4,  -0.051,  0.029,  0.055, 5,  29.925, -4.444,  5.906
162531.75601, 3,   0.231,  0.336,  9.143, 4,  -0.044,  0.016,  0.106, 5,  30.188, -4.463,  6.506
162531.77545, 3,   0.103,  0.274,  9.149, 4,   0.005,  0.021,  0.181
162531.79490, 3,  -0.176,  0.414,  9.331, 4,   0.066,  0.029,  0.244, 5,  30.319, -4.688,  6.300
162531.81434, 3,  -0.401,  0.488,  9.479, 4,   0.146,  0.027,  0.319, 5,  30.300, -4.725,  6.319
162531.83379, 3,  -0.706,  0.325,  9.142, 4,   0.274, -0.029,  0.386, 5,  30.638, -4.556,  6.450
162531.85323, 3,  -1.221,  0.469,  9.090, 4,   0.401, -0.031,  0.371, 5,  30.619, -4.725,  6.356
162531.87268, 3,  -1.385,  1.158,  9.200, 4,   0.357,  0.002,  0.320, 5,  30.694, -4.838,  6.525
162531.89213, 3,  -0.760,  2.110,  9.651, 4,  -0.043,  0.109,  0.307, 5,  30.881, -5.006,  6.263
162531.91157, 3,   0.162,  2.467, 11.346, 4,  -0.627,  0.390,  0.343, 5,  31.031, -4.913,  6.450
162531.93102, 3,   0.515,  2.376, 12.407, 4,  -0.687,  0.474,  0.349, 5,  30.956, -5.081,  6.375
162531.95046, 3,   0.547,  2.191, 12.431, 4,  -0.319,  0.339,  0.212, 5,  30.488, -5.306,  6.694
162531.96991, 3,   0.420,  1.730, 11.027, 4,   0.261,  0.159,  0.010, 5,  30.431, -5.456,  6.806
162531.98935, 3,   0.579,  1.530,  8.925, 4,   0.732,  0.006, -0.189, 5,  30.075, -5.906,  6.881
162532.00880, 3,   1.000,  1.432,  7.447, 4,   0.835, -0.070, -0.352, 5,  30.113, -5.738,  7.163
162532.02825, 3,   0.863,  1.363,  6.707, 4,   0.638, -0.060, -0.501, 5,  30.113, -5.888,  7.406
162532.04769, 3,   0.356,  1.392,  6.646, 4,   0.288,  0.067, -0.633, 5,  29.925, -5.775,  7.669
162532.06714, 3,   0.010,  1.472,  7.563, 4,  -0.017,  0.252, -0.658, 5,  29.700, -5.738,  7.706
162532.08658, 3,  -0.334,  2.051,  8.241, 4,  -0.095,  0.328, -0.625, 5,  29.531, -5.456,  7.594
162532.10603, 3,  -0.640,  2.988,  8.524, 4,  -0.102,  0.201, -0.584, 5,  29.963, -4.950,  7.519
162532.12547, 3,  -0.952,  3.481,  9.126, 4,  -0.192,  0.175, -0.485, 5,  29.869, -4.688,  7.556
162532.14492, 3,  -1.059,  3.470,  9.812, 4,  -0.211,  0.124, -0.403, 5,  29.850, -4.106,  7.725
162532.16436, 3,  -1.190,  3.164, 10.260, 4,  -0.052,  0.008, -0.356, 5,  29.813, -3.694,  7.763
162532.18381, 3,  -1.294,  2.825, 10.013, 4,   0.253, -0.135, -0.334, 5,  29.869, -3.075,  7.838
162532.20326, 3,  -1.571,  2.830,  9.466, 4,   0.497, -0.254, -0.380, 5,  30.131, -2.775,  7.988
162532.22270, 3,  -2.069,  2.868,  9.389, 4,   0.484, -0.260, -0.514, 5,  30.281, -2.400,  8.081
162532.24215, 3,  -2.054,  2.727, 10.086, 4,   0.244, -0.246, -0.591, 5,  30.450, -2.025,  8.250
162532.26159, 3,  -1.658,  2.665, 11.637, 4,  -0.027, -0.188, -0.550, 5,  30.431, -1.763,  8.175
162532.28104, 3,  -1.190,  2.982, 13.056, 4,  -0.215, -0.166, -0.425, 5,  30.694, -1.294,  8.344
162532.30048, 3,  -0.296,  3.581, 14.139, 4,  -0.255, -0.222, -0.178, 5,  30.769, -1.050,  8.175
162532.31993, 3,   0.529,  3.887, 14.254, 4,   0.177, -0.260, -0.207, 5,  31.031, -0.900,  7.913
162532.33938, 3,   0.297,  1.969, 13.348, 4,   0.951, -0.125, -0.800, 5,  30.975, -0.488,  7.669
162532.35882, 3,  -1.240,  0.529, 11.176, 4,   1.395, -0.064, -1.317, 5,  30.900, -0.094,  7.406
162532.37827, 3,  -1.828, -1.815, 10.443, 4,   1.456,  0.254, -1.222, 5,  31.031,  0.338,  7.275
162532.39771, 3,  -2.139, -2.498,  9.353, 4,   1.115,  0.532, -0.900, 5,  30.956,  1.144,  7.050
162532.41716, 3,  -1.278, -2.179,  9.617, 4,   0.402,  0.693, -0.573, 5,  31.069,  1.763,  7.106
162532.43660, 3,   0.100, -2.024, 10.293, 4,  -0.462,  0.485, -0.166, 5,  31.013,  2.269,  7.013
162532.45605, 3,   1.429, -2.831, 12.216, 4,  -1.036,  0.198,  0.306, 5,  31.144,  2.850,  7.163
162532.47550, 3,   1.712, -3.323, 13.342, 4,  -1.080, -0.247,  0.561
162532.49494, 3,   1.628, -3.294, 13.359, 4,  -0.794, -0.654,  0.649, 5,  31.444,  3.525,  7.275
162532.51439, 3,   1.536, -2.136, 11.875, 4,  -0.378, -0.826,  0.584
162532.53383, 3,   1.573, -0.167, 10.426, 4,   0.148, -0.701,  0.276, 5,  31.613,  3.638,  6.975
162532.55328, 3,   1.338,  1.511,  9.521, 4,   0.257, -0.460, -0.074, 5,  31.763,  3.488,  6.656
162532.57272, 3,   1.525,  1.063,  9.483, 4,   0.078, -0.194, -0.002, 5,  31.913,  3.094,  6.431
162532.59217, 3,   0.861,  0.188,  8.555, 4,   0.303,  0.073,  0.288, 5,  32.081,  2.606,  6.131
162532.61161, 3,   0.634, -0.292,  7.638, 4,   0.580,  0.332,  0.433, 5,  32.081,  2.194,  6.038
162532.63106, 3,   0.874, -0.427,  6.675, 4,   0.693,  0.334,  0.556, 5,  32.119,  1.875,  5.794
162532.65051, 3,   1.317, -0.579,  6.542, 4,   0.602,  0.151,  0.697, 5,  32.231,  1.894,  5.475
162532.66995, 3,   1.523, -0.325,  6.631, 4,   0.324,  0.015,  0.675, 5,  31.969,  1.556,  5.231
162532.68940, 3,   1.572, -0.224,  7.292, 4,  -0.049,  0.003,  0.455, 5,  31.969,  1.444,  5.063
162532.70884, 3,   1.337, -0.154,  8.312, 4,  -0.373,  0.102,  0.183, 5,  31.969,  1.538,  5.063
162532.72829, 3,   0.838, -0.378,  9.142, 4,  -0.514,  0.175, -0.099, 5,  32.081,  1.106,  5.119
162532.74773, 3,  -0.042, -0.505,  9.951, 4,  -0.516,  0.280, -0.271, 5,  31.969,  1.013,  5.325
162532.76718, 3,  -0.727, -0.208, 10.915, 4,  -0.449,  0.311, -0.284, 5,  32.231,  1.013,  5.250
162532.78663, 3,  -0.930, -0.262, 11.313, 4,  -0.290,  0.106, -0.107, 5,  32.269,  0.788,  5.344
162532.80607, 3,  -0.365, -0.205, 10.614, 4,   0.025, -0.142,  0.141, 5,  32.119,  0.300,  5.644
162532.82552, 3,   0.043, -0.315,  9.361, 4,   0.326, -0.275,  0.367, 5,  32.288,  0.131,  5.831
162532.84496, 3,   0.170, -0.609,  8.555, 4,   0.467, -0.297,  0.474, 5,  32.419, -0.000,  6.131
162532.86441, 3,   0.193, -0.578,  8.274, 4,   0.437, -0.187,  0.464, 5,  32.250, -0.244,  6.075
162532.88385, 3,   0.200, -0.285,  8.619, 4,   0.280, -0.022,  0.306, 5,  32.288, -0.056,  6.281
162532.90330, 3,   0.316, -0.145,  8.993, 4,   0.135,  0.075,  0.309, 5,  32.419,  0.075,  6.169
162532.92275, 3,   0.500,  0.185,  9.172, 4,   0.001,  0.061,  0.420, 5,  32.269, -0.150,  6.038
162532.94219, 3,   0.933,  0.297,  9.458, 4,  -0.104,  0.042,  0.550, 5,  32.475, -0.375,  5.813
162532.96164, 3,   1.214,  0.044,  9.943, 4,  -0.134,  0.019,  0.641, 5,  32.438, -0.581,  5.625
162532.98108, 3,   1.420, -0.285, 10.188, 4,  -0.108, -0.020,  0.663, 5,  32.531, -0.881,  5.456
162533.00053, 3,   1.605, -0.551, 10.265, 4,  -0.079, -0.092,  0.614, 5,  32.494, -1.350,  5.344
162533.01997, 3,   1.642, -0.575, 10.207, 4,  -0.038, -0.158,  0.498, 5,  32.550, -1.669,  5.175
162533.03942, 3,   1.574, -0.445, 10.067, 4,   0.057, -0.165,  0.350, 5,  32.531, -2.006,  4.856
162533.05886, 3,   1.514, -0.512,  9.677, 4,   0.169, -0.128,  0.234, 5,  32.475, -2.569,  4.744
162533.07831, 3,   1.220, -0.309,  8.993, 4,   0.254, -0.121,  0.100, 5,  32.513, -2.869,  4.819
162533.09776, 3,   0.964,  0.062,  8.471, 4,   0.248, -0.168, -0.042, 5,  32.325, -3.113,  4.950
162533.11720, 3,   0.782,  0.497,  8.500, 4,   0.065, -0.252, -0.120, 5,  32.569, -3.394,  4.800
162533.13665, 3,   0.749,  0.879,  9.241, 4,  -0.235, -0.271, -0.147, 5,  32.719, -3.600,  4.763
162533.15609, 3,   0.705,  1.185,  9.922, 4,  -0.424, -0.208, -0.168, 5,  32.663, -3.450,  4.763
162533.17554, 3,   0.557,  1.336, 10.296, 4,  -0.397, -0.115, -0.191, 5,  32.775, -3.506,  4.706
162533.19498, 3,   0.258,  1.300, 10.344, 4,  -0.270, -0.022, -0.200, 5,  32.850, -3.656,  4.781
162533.21443, 3,   0.016,  1.116, 10.056, 4,  -0.144,  0.014, -0.171
162533.23388, 3,  -0.050,  0.947,  9.750, 4,  -0.067,  0.015, -0.127, 5,  32.850, -3.525,  4.594
162533.25332, 3,  -0.006,  0.854,  9.562, 4,  -0.044,  0.003, -0.079, 5,  32.888, -3.581,  4.444
162533.27277, 3,   0.038,  0.851,  9.484, 4,  -0.065,  0.005, -0.031, 5,  32.925, -3.600,  4.219
162533.29221, 3,   0.123,  0.834,  9.515, 4,  -0.117,  0.030,  0.018, 5,  33.056, -3.225,  4.125
162533.31166, 3,   0.162,  0.808,  9.698, 4,  -0.158,  0.055,  0.060, 5,  32.831, -2.906,  3.994
162533.33110, 3,   0.173,  0.846,  9.847, 4,  -0.158,  0.074,  0.084, 5,  32.700, -3.094,  3.788
162533.35055, 3,   0.249,  0.893,  9.824, 4,  -0.123,  0.080,  0.118, 5,  32.700, -2.944,  3.788
162533.37000, 3,   0.327,  0.870,  9.763, 4,  -0.098,  0.065,  0.163, 5,  32.550, -3.056,  3.713
162533.38944, 3,   0.418,  0.743,  9.738, 4,  -0.087,  0.026,  0.204, 5,  32.588, -3.150,  3.863
162533.40889, 3,   0.570,  0.593,  9.453, 4,  -0.073, -0.038,  0.231, 5,  32.644, -3.169,  3.825
162533.42833, 3,   0.695,  0.601,  9.415, 4,  -0.101, -0.040,  0.223, 5,  32.756, -3.019,  3.956
162533.44778, 3,   0.768,  0.693,  9.538, 4,  -0.159, -0.052,  0.188, 5,  32.531, -3.375,  3.938
162533.46722, 3,   0.834,  0.713,  9.703, 4,  -0.200, -0.032,  0.154, 5,  32.588, -3.506,  3.956
162533.48667, 3,   0.851,  0.707,  9.813, 4,  -0.198,  0.029,  0.119, 5,  32.606, -3.525,  3.994
162533.50612, 3,   0.779,  0.699,  9.752, 4,  -0.174,  0.082,  0.089, 5,  32.663, -3.788,  4.031
162533.52556, 3,   0.650,  0.674,  9.737, 4,  -0.156,  0.111,  0.063, 5,  32.738, -3.806,  4.106
162533.54501, 3,   0.548,  0.628,  9.698, 4,  -0.134,  0.113,  0.053, 5,  32.606, -4.106,  4.256
162533.56445, 3,   0.547,  0.565,  9.532, 4,  -0.107,  0.087,  0.069, 5,  32.438, -4.106,  4.256
162533.58390, 3,   0.589,  0.553,  9.322, 4,  -0.092,  0.055,  0.085, 5,  32.400, -4.219,  4.088
162533.60334, 3,   0.589,  0.555,  9.264, 4,  -0.114,  0.025,  0.084, 5,  32.400, -4.050,  4.313
162533.62279, 3,   0.709,  0.553,  9.350, 4,  -0.175, -0.004,  0.071, 5,  32.400, -4.106,  4.463
162533.64223, 3,   0.786,  0.671,  9.549, 4,  -0.249, -0.004,  0.051, 5,  32.381, -4.181,  4.481
162533.66168, 3,   0.729,  0.814,  9.883, 4,  -0.299,  0.006,  0.028, 5,  32.250, -4.238,  4.706
162533.68113, 3,   0.803,  0.869, 10.243, 4,  -0.304, -0.009,  0.017, 5,  32.531, -4.219,  4.613
162533.70057, 3,   0.801,  0.867, 10.274, 4,  -0.222, -0.038, -0.004, 5,  32.475, -4.069,  4.556
162533.72002, 3,   0.530,  0.907,  9.872, 4,  -0.093, -0.048, -0.060, 5,  32.494, -4.181,  4.444
162533.73946, 3,   0.278,  0.903,  9.423, 4,  -0.017, -0.062, -0.103, 5,  32.569, -4.313,  4.594
162533.75891, 3,   0.054,  0.945,  9.271, 4,  -0.015, -0.069, -0.119, 5,  32.550, -4.463,  4.519
162533.77835, 3,  -0.039,  1.108,  9.299, 4,  -0.067, -0.087, -0.119, 5,  32.475, -4.669,  4.500
162533.79780, 3,   0.111,  1.373,  9.402, 4,  -0.165, -0.105, -0.091, 5,  32.419, -4.594,  4.481
162533.81725, 3,   0.242,  1.673,  9.508, 4,  -0.281, -0.095, -0.078, 5,  32.494, -4.556,  4.369
162533.83669, 3,   0.297,  1.794,  9.813, 4,  -0.373, -0.012, -0.058, 5,  32.513, -4.631,  4.500
162533.85614, 3,   0.597,  1.691, 10.381, 4,  -0.400,  0.123,  0.003, 5,  32.831, -4.481,  4.444
162533.87558, 3,   0.673,  1.537, 10.848, 4,  -0.349,  0.234,  0.060, 5,  32.981, -4.650,  4.669
162533.89503, 3,   0.888,  1.475, 11.064, 4,  -0.201,  0.277,  0.089
162533.91447, 3,   1.210,  1.457, 10.894, 4,   0.025,  0.212,  0.094, 5,  33.000, -4.894,  4.388
162533.93392, 3,   1.186,  1.438, 10.177, 4,   0.295,  0.117,  0.039
162533.95337, 3,   1.019,  1.382,  9.562, 4,   0.517,  0.062, -0.078, 5,  33.075, -4.856,  4.219
162533.97281, 3,   1.019,  1.135,  8.942, 4,   0.626,  0.039, -0.221, 5,  33.244, -4.838,  4.313
162533.99226, 3,   0.733,  1.219,  8.426, 4,   0.624,  0.081, -0.382, 5,  33.356, -4.856,  4.200
162534.01170, 3,   0.020,  1.545,  8.408, 4,   0.533,  0.130, -0.477, 5,  33.094, -4.856,  4.088
162534.03115, 3,   0.916,  1.657,  8.467, 4,   0.407,  0.171, -0.436, 5,  32.925, -4.838,  4.031
162534.05059, 3,   1.523,  2.343,  8.284, 4,   0.275,  0.072, -0.368, 5,  32.888, -4.538,  3.956
162534.07004, 3,   1.135,  3.062,  8.571, 4,   0.184,  0.094, -0.450, 5,  32.963, -4.481,  4.031
162534.08949, 3,   0.468,  2.725,  8.954, 4,   0.156,  0.128, -0.574, 5,  32.944, -4.106,  4.125
162534.10893, 3,   0.245,  2.325,  9.035, 4,   0.227,  0.095, -0.595, 5,  32.906, -3.656,  4.481
162534.12838, 3,   0.465,  2.290,  8.500, 4,   0.356, -0.087, -0.528, 5,  32.888, -3.319,  4.200
162534.14782, 3,   0.332,  2.671,  8.001, 4,   0.379, -0.245, -0.522, 5,  32.888, -2.775,  4.313
162534.16727, 3,  -0.134,  2.867,  7.817, 4,   0.252, -0.257, -0.613, 5,  32.925, -2.194,  4.294
162534.18671, 3,  -0.658,  2.511,  8.192, 4,   0.002, -0.182, -0.710, 5,  32.925, -1.688,  4.444
162534.20616, 3,  -1.111,  2.116,  9.395, 4,  -0.285, -0.044, -0.757, 5,  33.169, -1.219,  4.444
162534.22561, 3,  -1.284,  2.240, 10.456, 4,  -0.482,  0.020, -0.701, 5,  33.075, -0.563,  4.350
162534.24505, 3,  -1.074,  2.455, 10.901, 4,  -0.475,  0.080, -0.551, 5,  33.150, -0.225,  4.350
162534.26450, 3,  -0.539,  2.699, 11.140, 4,  -0.416,  0.256, -0.453, 5,  33.131,  0.319,  4.088
162534.28394, 3,  -0.025,  2.786, 12.003, 4,  -0.474,  0.426, -0.484, 5,  33.431,  0.656,  4.406
162534.30339, 3,  -0.182,  2.746, 13.184, 4,  -0.597,  0.444, -0.582, 5,  33.506,  0.863,  4.519
162534.32283, 3,  -0.475,  2.789, 14.277, 4,  -0.522,  0.378, -0.750, 5,  33.544,  1.106,  4.594
162534.34228, 3,  -0.940,  3.223, 14.417, 4,  -0.078,  0.395, -1.016, 5,  33.563,  1.313,  4.519
162534.36172, 3,  -1.523,  1.950, 13.451, 4,   0.668,  0.554, -1.233, 5,  33.488,  1.856,  4.725
162534.38117, 3,  -2.027,  0.577, 11.562, 4,   1.198,  0.584, -1.196, 5,  33.413,  2.381,  4.838
162534.40062, 3,  -2.732, -0.299, 10.296, 4,   1.053,  0.309, -0.947, 5,  33.431,  3.131,  5.231
162534.42006, 3,  -2.940, -0.701, 11.014, 4,   0.586,  0.054, -0.709, 5,  33.450,  3.656,  5.513
162534.43951, 3,  -2.340, -1.404, 11.117, 4,   0.338, -0.025, -0.376, 5,  33.206,  4.369,  5.738
162534.45895, 3,  -1.467, -1.592, 10.180, 4,   0.376, -0.084,  0.013, 5,  32.906,  4.763,  5.775
162534.47840, 3,  -0.436, -1.306,  9.542, 4,   0.474,  0.020,  0.430, 5,  32.813,  5.438,  5.831
162534.49784, 3,   0.333, -1.235,  8.748, 4,   0.487, -0.000,  0.836, 5,  32.869,  5.738,  5.925
162534.51729, 3,   0.671, -1.274,  8.529, 4,   0.350, -0.179,  1.030, 5,  32.813,  5.644,  5.981
162534.53674, 3,   0.828, -1.483,  8.778, 4,   0.170, -0.313,  0.996, 5,  32.869,  5.644,  6.113
162534.55618, 3,   0.662, -1.474,  8.922, 4,   0.121, -0.321,  0.831, 5,  32.738,  5.363,  5.813
162534.57563, 3,   0.582, -1.058,  8.444, 4,   0.213, -0.197,  0.657, 5,  32.925,  5.100,  5.494
162534.59507, 3,   0.841, -0.547,  8.035, 4,   0.228, -0.096,  0.542
162534.61452, 3,   1.144, -0.051,  8.237, 4,   0.069, -0.030,  0.485, 5,  33.319,  4.538,  5.288
162534.63396, 3,   1.154,  0.014,  8.943, 4,  -0.121, -0.046,  0.469
162534.65341, 3,   0.941, -0.078,  9.262, 4,  -0.168, -0.082,  0.505, 5,  33.431,  3.844,  5.175
162534.67286, 3,   0.912, -0.314,  8.729, 4,  -0.039, -0.061,  0.531, 5,  33.638,  3.525,  5.194
162534.69230, 3,   1.043, -0.660,  7.902, 4,   0.074,  0.014,  0.522, 5,  33.806,  3.075,  4.894
162534.71175, 3,   1.046, -0.833,  7.920, 4,  -0.001,  0.097,  0.484, 5,  34.219,  2.738,  4.725
162534.73119, 3,   0.699, -0.837,  8.704, 4,  -0.247,  0.133,  0.410, 5,  34.125,  2.381,  4.669
162534.75064, 3,   0.266, -1.144,  9.756, 4,  -0.545,  0.031,  0.395, 5,  34.181,  2.138,  4.819
162534.77008, 3,   0.154, -1.166, 10.417, 4,  -0.829, -0.140,  0.417, 5,  33.956,  1.894,  4.781
162534.78953, 3,   0.534, -0.845, 10.705, 4,  -0.791, -0.274,  0.437, 5,  33.956,  1.463,  4.650
162534.80898, 3,   0.846, -0.178, 10.668, 4,  -0.525, -0.321,  0.444, 5,  34.069,  1.313,  4.631
162534.82842, 3,   0.727,  0.364, 10.748, 4,  -0.292, -0.303,  0.397, 5,  34.106,  0.900,  4.481
162534.84787, 3,   0.472,  0.376, 10.705, 4,  -0.174, -0.240,  0.345, 5,  34.031,  0.806,  4.369
162534.86731, 3,   0.382,  0.115, 10.589, 4,  -0.030, -0.162,  0.347, 5,  33.881,  0.694,  4.388
162534.88676, 3,   0.120, -0.080,  9.603, 4,   0.240, -0.028,  0.321, 5,  34.219,  0.600,  4.406
162534.90620, 3,   0.223,  0.089,  8.807, 4,   0.443,  0.042,  0.317, 5,  34.125,  0.188,  4.313
162534.92565, 3,   0.415,  0.352,  8.856, 4,   0.359,  0.045,  0.354, 5,  34.275, -0.150,  4.275
162534.94510, 3,   0.479,  0.202,  9.262, 4,   0.143,  0.011,  0.403, 5,  34.388, -0.506,  4.294
162534.96454, 3,   0.549,  0.063,  9.411, 4,   0.046, -0.009,  0.450, 5,  34.331, -0.938,  4.388
162534.98399, 3,   0.628,  0.165,  9.033, 4,   0.133,  0.003,  0.458, 5,  33.956, -1.294,  4.275
162535.00343, 3,   0.874,  0.272,  8.591, 4,   0.235,  0.029,  0.462, 5,  33.919, -1.519,  4.406
162535.02288, 3,   0.937,  0.311,  8.477, 4,   0.151,  0.041,  0.467, 5,  33.956, -2.175,  4.313
162535.04232, 3,   1.039,  0.054,  8.889, 4,  -0.109,  0.038,  0.489, 5,  33.956, -2.494,  4.313
162535.06177, 3,   1.148, -0.317,  9.481, 4,  -0.387, -0.022,  0.508, 5,  33.900, -2.850,  4.275
162535.08122, 3,   1.421, -0.555, 10.234, 4,  -0.563, -0.050,  0.504, 5,  34.181, -3.356,  4.050
162535.10066, 3,   1.534, -0.563, 10.975, 4,  -0.577, -0.026,  0.448, 5,  34.069, -3.469,  3.938
162535.12011, 3,   1.216, -0.405, 11.153, 4,  -0.419,  0.008,  0.285, 5,  34.200, -3.525,  3.919
162535.13955, 3,   0.848, -0.403, 10.688, 4,  -0.148,  0.029,  0.103, 5,  34.369, -3.619,  4.181
162535.15900, 3,   0.724, -0.376,  9.891, 4,   0.073, -0.032, -0.020, 5,  34.556, -4.144,  4.050
162535.17844, 3,   0.658, -0.019,  9.423, 4,   0.173, -0.086, -0.095, 5,  34.706, -4.331,  3.806
162535.19789, 3,   0.615,  0.370,  9.088, 4,   0.175, -0.142, -0.120, 5,  34.631, -4.669,  3.731
162535.21734, 3,   0.493,  0.589,  8.789, 4,   0.118, -0.171, -0.107, 5,  34.894, -4.650,  3.544
162535.23678, 3,   0.383,  0.733,  8.877, 4,   0.004, -0.140, -0.105, 5,  34.481, -4.463,  3.656
162535.25623, 3,   0.285,  0.752,  9.123, 4,  -0.160, -0.042, -0.124, 5,  34.631, -4.594,  3.694
162535.27567, 3,   0.193,  0.795,  9.543, 4,  -0.317,  0.018, -0.116
162535.29512, 3,   0.267,  0.873, 10.249, 4,  -0.436,  0.030, -0.048, 5,  34.669, -4.856,  3.581
162535.31456, 3,   0.376,  0.846, 10.737, 4,  -0.415,  0.018,  0.050, 5,  34.613, -4.819,  3.375
162535.33401, 3,   0.534,  0.680, 10.661, 4,  -0.240,  0.015,  0.132, 5,  34.744, -4.613,  3.188
162535.35345, 3,   0.627,  0.565, 10.184, 4,  -0.051,  0.033,  0.161, 5,  34.481, -4.500,  3.319
162535.37290, 3,   0.656,  0.509,  9.836, 4,   0.039,  0.052,  0.142, 5,  34.613, -4.538,  3.300
162535.39235, 3,   0.687,  0.490,  9.823, 4,   0.047,  0.073,  0.112, 5,  34.538, -4.631,  3.338
162535.41179, 3,   0.743,  0.482,  9.810, 4,   0.050,  0.055,  0.099, 5,  34.594, -4.744,  3.319
162535.43124, 3,   0.788,  0.494,  9.716, 4,   0.076,  0.028,  0.106, 5,  34.256, -4.781,  3.300
162535.45068, 3,   0.809,  0.484,  9.580, 4,   0.084, -0.018,  0.120, 5,  34.331, -4.931,  3.263
162535.47013, 3,   0.755,  0.505,  9.537, 4,   0.061, -0.067,  0.119, 5,  34.388, -5.119,  3.300
162535.48957, 3,   0.815,  0.534,  9.630, 4,   0.035, -0.102,  0.118, 5,  34.106, -5.194,  3.769
162535.50902, 3,   0.879,  0.557,  9.649, 4,   0.043, -0.110,  0.128, 5,  34.275, -5.325,  3.731
162535.52847, 3,   1.022,  0.504,  9.549, 4,   0.047, -0.130,  0.151, 5,  34.050, -5.569,  3.844
162535.54791, 3,   1.117,  0.451,  9.457, 4,   0.026, -0.141,  0.169, 5,  33.919, -5.625,  3.844
162535.56736, 3,   1.126,  0.494,  9.341, 4,  -0.018, -0.143,  0.159, 5,  34.144, -5.738,  3.806
162535.58680, 3,   1.392,  0.503,  9.590, 4,  -0.078, -0.112,  0.128, 5,  34.631, -5.850,  3.469
162535.60625, 3,   1.554,  0.571,  9.722, 4,  -0.108, -0.087,  0.076, 5,  34.538, -5.850,  3.431
162535.62569, 3,   1.427,  0.646,  9.710, 4,  -0.080, -0.036, -0.007, 5,  34.556, -6.000,  3.281
162535.64514, 3,   1.333,  0.657,  9.713, 4,  -0.036,  0.068, -0.092, 5,  34.631, -5.850,  2.850
162535.66459, 3,   1.271,  0.545,  9.741, 4,  -0.024,  0.101, -0.168, 5,  34.575, -5.944,  2.888
162535.68403, 3,   0.941,  0.490,  9.747, 4,  -0.025,  0.116, -0.240, 5,  34.913, -5.944,  2.663
162535.70348, 3,   0.498,  0.602,  9.485, 4,  -0.002,  0.130, -0.289, 5,  34.706, -5.944,  2.756
162535.72292, 3,   0.213,  0.863,  9.088, 4,   0.051,  0.151, -0.281, 5,  34.669, -5.906,  2.475
162535.74237, 3,  -0.051,  1.187,  8.919, 4,   0.060,  0.159, -0.223, 5,  34.275, -5.869,  2.719
162535.76181, 3,  -0.164,  1.300,  9.289, 4,  -0.041,  0.136, -0.127, 5,  34.350, -5.531,  2.531
162535.78126, 3,  -0.296,  0.948,  9.465, 4,  -0.102,  0.004,  0.002, 5,  34.444, -5.288,  2.625
162535.80071, 3,  -0.429,  0.761,  9.664, 4,  -0.016, -0.060,  0.102, 5,  34.575, -5.513,  2.850
162535.82015, 3,  -0.508,  0.985,  9.852, 4,   0.066, -0.040,  0.135, 5,  34.688, -5.438,  2.925
162535.83960, 3,  -0.398,  1.198, 10.040, 4,   0.101, -0.023,  0.180, 5,  34.519, -5.419,  3.019
162535.85904, 3,  -0.193,  1.164, 10.268, 4,   0.124, -0.015,  0.244, 5,  34.931, -5.700,  3.038
162535.87849, 3,   0.038,  1.315, 10.289, 4,   0.086, -0.002,  0.210, 5,  34.856, -5.906,  3.450
162535.89793, 3,   0.249,  1.870, 10.108, 4,  -0.050,  0.004,  0.070, 5,  34.838, -6.038,  3.563
162535.91738, 3,   0.493,  2.319, 10.096, 4,  -0.280,  0.044, -0.108, 5,  34.575, -6.188,  3.919
162535.93683, 3,   0.645,  2.331, 10.080, 4,  -0.435,  0.086, -0.172, 5,  34.538, -6.188,  3.881
162535.95627, 3,   0.682,  2.568,  9.762, 4,  -0.398,  0.155, -0.227, 5,  34.500, -6.244,  3.881
162535.97572, 3,   0.563,  2.695,  9.447, 4,  -0.249,  0.181, -0.268, 5,  34.463, -6.206,  3.581
162535.99516, 3,   0.481,  2.356,  9.254, 4,   0.017,  0.187, -0.191
162536.01461, 3,   0.307,  2.311,  8.969, 4,   0.251,  0.150, -0.102, 5,  34.369, -6.113,  3.525
162536.03405, 3,   0.325,  2.365,  8.701, 4,   0.233, -0.012, -0.033, 5,  34.181, -5.775,  3.375
162536.05350, 3,   0.363,  2.240,  8.544, 4,   0.180, -0.145,  0.062, 5,  34.331, -5.625,  3.394
162536.07295, 3,   0.327,  2.179,  8.482, 4,   0.125, -0.150,  0.074, 5,  34.706, -5.400,  3.375
162536.09239, 3,   0.302,  1.996,  8.449, 4,   0.089, -0.077,  0.007, 5,  34.875, -5.644,  3.188
162536.11184, 3,   0.314,  1.894,  8.564, 4,   0.091, -0.001, -0.036, 5,  34.931, -5.663,  3.394
162536.13128, 3,   0.130,  2.128,  8.833, 4,   0.080,  0.007, -0.049, 5,  34.781, -5.400,  3.375
162536.15073, 3,   0.423,  2.367,  8.913, 4,   0.026, -0.065, -0.003, 5,  34.613, -5.138,  3.713
162536.17017, 3,   0.917,  2.662,  8.814, 4,  -0.000, -0.118,  0.017, 5,  34.706, -4.969,  3.656
162536.18962, 3,   1.112,  2.583,  8.943, 4,  -0.009, -0.126,  0.016, 5,  34.894, -5.138,  3.881
162536.20907, 3,   1.107,  2.430,  9.103, 4,   0.014, -0.227,  0.001, 5,  34.650, -5.231,  3.619
162536.22851, 3,   1.191,  2.562,  9.166, 4,   0.128, -0.471, -0.009, 5,  34.744, -5.288,  3.563
162536.24796, 3,   0.599,  2.653,  8.773, 4,   0.343, -0.488, -0.048, 5,  34.856, -5.213,  3.469
162536.26740, 3,   0.024,  2.753,  8.633, 4,   0.473, -0.294, -0.115, 5,  34.988, -5.363,  3.150
162536.28685, 3,  -0.359,  2.592,  9.070, 4,   0.407, -0.104, -0.170, 5,  35.213, -5.438,  2.981
162536.30629, 3,  -0.516,  2.467,  9.294, 4,   0.239, -0.165, -0.206, 5,  35.175, -5.588,  2.700
162536.32574, 3,  -0.694,  2.262,  9.630, 4,   0.060, -0.284, -0.147, 5,  35.456, -5.513,  2.681
162536.34519, 3,  -1.112,  2.365, 10.007, 4,   0.001, -0.214, -0.038, 5,  35.550, -5.325,  2.456
162536.36463, 3,  -1.339,  2.158, 10.603, 4,   0.040,  0.180,  0.073, 5,  35.831, -5.175,  2.306
162536.38408, 3,  -1.366,  2.176, 11.116, 4,  -0.051,  0.647,  0.095, 5,  35.681, -4.950,  2.044
162536.40352, 3,  -0.505,  1.998, 11.909, 4,  -0.407,  0.861,  0.014, 5,  35.719, -4.856,  2.100
162536.42297, 3,   0.169,  1.502, 11.738, 4,  -0.854,  0.579, -0.137, 5,  35.888, -4.575,  2.344
162536.44241, 3,  -0.078,  0.907, 12.096, 4,  -1.213,  0.146, -0.223, 5,  36.019, -4.594,  2.456
162536.46186, 3,   0.266,  0.342, 13.242, 4,  -1.267,  0.083, -0.201, 5,  36.544, -4.388,  2.363
162536.48131, 3,   0.942,  0.134, 13.154, 4,  -1.003,  0.263, -0.178, 5,  36.581, -4.519,  2.438
162536.50075, 3,   1.068, -0.441, 11.512, 4,  -0.579,  0.365, -0.256, 5,  36.938, -4.706,  2.644
162536.52020, 3,   0.915, -1.143, 10.826, 4,  -0.156,  0.467, -0.380, 5,  37.313, -4.800,  2.813
162536.53964, 3,   0.880, -1.900, 10.778, 4,   0.272,  0.551, -0.440, 5,  37.913, -4.875,  3.188
162536.55909, 3,   1.184, -2.290, 10.388, 4,   0.744,  0.408, -0.326, 5,  38.419, -4.463,  3.113
162536.57853, 3,   1.708, -2.732, 10.157, 4,   1.117,  0.214,  0.029, 5,  38.794, -4.219,  3.113
162536.59798, 3,   1.658, -2.859,  9.593, 4,   1.344,  0.015,  0.271, 5,  39.450, -3.938,  3.094
162536.61743, 3,   1.298, -2.605,  8.942, 4,   1.374, -0.317,  0.259, 5,  40.163, -4.050,  3.300
162536.63687, 3,   0.906, -2.126,  8.886, 4,   1.198, -0.584,  0.192, 5,  41.269, -4.069,  3.075
162536.65632, 3,   0.961, -1.959,  8.316, 4,   0.893, -0.818,  0.216, 5,  42.488, -3.788,  2.288
162536.67576, 3,   1.761, -1.925,  8.129, 4,   0.525, -0.928,  0.286, 5,  43.819, -3.750,  1.650
162536.69521, 3,   2.368, -1.935,  8.473, 4,   0.285, -0.815,  0.221, 5,  45.094, -3.994,  0.750
162536.71465, 3,   2.286, -1.644,  8.579, 4,   0.239, -0.430, -0.017
162536.73410, 3,   1.780, -1.215,  8.480, 4,   0.178,  0.027, -0.234, 5,  46.594, -3.938, -0.131
162536.75355, 3,   1.307, -0.903,  8.418, 4,  -0.098,  0.368, -0.303, 5,  48.506, -4.181, -1.256
162536.77299, 3,   1.102, -0.777,  8.875, 4,  -0.529,  0.616, -0.241, 5,  50.138, -4.331, -2.306
162536.79244, 3,   0.791, -0.800,  9.682, 4,  -0.892,  0.718, -0.200, 5,  51.919, -4.200, -3.488
162536.81188, 3,   0.252, -0.704, 10.333, 4,  -1.020,  0.644, -0.193, 5,  53.606, -3.769, -4.369
162536.83133, 3,   0.129, -0.244, 10.107, 4,  -0.945,  0.475, -0.149, 5,  55.050, -3.338, -4.763
162536.85077, 3,   0.363, -0.187,  9.738, 4,  -0.952,  0.225, -0.124, 5,  56.756, -2.663, -4.931
162536.87022, 3,   0.705, -0.492,  9.770, 4,  -0.974,  0.081, -0.096, 5,  58.481, -1.650, -4.800
162536.88966, 3,   0.587, -0.848, 10.056, 4,  -0.739,  0.157, -0.148, 5,  60.019, -1.031, -4.031
162536.90911, 3,   0.045, -0.870, 10.108, 4,  -0.384,  0.228, -0.281, 5,  61.181, -0.206, -3.131
162536.92856, 3,  -0.358, -0.794,  9.979, 4,  -0.135,  0.199, -0.345, 5,  62.400,  0.469, -1.838
162536.94800, 3,  -0.056, -1.155,  9.511, 4,  -0.018,  0.038, -0.233, 5,  63.675,  1.200, -0.094
162536.96745, 3,  -0.063, -1.290,  9.445, 4,   0.052,  0.011, -0.062, 5,  64.950,  1.763,  1.688
162536.98689, 3,  -0.600, -0.951,  9.670, 4,   0.027,  0.078, -0.008, 5,  66.019,  2.006,  3.919
162537.00634, 3,  -0.443, -1.099, 10.037, 4,  -0.067,  0.089,  0.091, 5,  66.825,  2.344,  5.794
162537.02578, 3,  -0.108, -0.788,  9.966, 4,  -0.199, -0.001,  0.186, 5,  67.313,  2.269,  7.594
162537.04523, 3,  -0.017, -0.378, 10.327, 4,  -0.306, -0.038,  0.218, 5,  67.988,  1.819,  9.188
162537.06468, 3,  -0.194, -0.097, 10.522, 4,  -0.150, -0.053,  0.254, 5,  68.325,  1.313, 10.425
162537.08412, 3,  -0.045, -0.327, 10.047, 4,   0.050, -0.097,  0.272, 5,  68.700,  0.600, 11.288
162537.10357, 3,   0.072, -0.548,  9.489, 4,   0.184, -0.114,  0.244, 5,  68.606, -0.094, 11.906
162537.12301, 3,  -0.013, -0.634,  9.267, 4,   0.185, -0.076,  0.181, 5,  68.550, -1.088, 12.563
162537.14246, 3,   0.022, -0.360,  9.551, 4,   0.065, -0.007,  0.164, 5,  68.288, -1.763, 12.338
162537.16190, 3,   0.197, -0.202,  9.977, 4,  -0.094,  0.057,  0.208, 5,  68.175, -2.850, 12.525
162537.18135, 3,   0.296, -0.200, 10.354, 4,  -0.162,  0.044,  0.242, 5,  68.138, -3.863, 12.375
162537.20080, 3,   0.193, -0.229, 10.662, 4,  -0.106,  0.007,  0.244, 5,  67.894, -4.575, 12.038
162537.22024, 3,   0.150, -0.354, 10.308, 4,   0.061, -0.064,  0.217, 5,  68.006, -5.456, 11.756
162537.23969, 3,   0.181, -0.334,  9.517, 4,   0.251, -0.101,  0.183, 5,  67.913, -5.944, 11.588
162537.25913, 3,   0.181, -0.165,  9.075, 4,   0.310, -0.139,  0.160, 5,  67.913, -6.731, 11.475
162537.27858, 3,   0.238, -0.054,  8.948, 4,   0.221, -0.158,  0.174, 5,  67.781, -7.144, 10.875
162537.29802, 3,   0.359, -0.066,  9.162, 4,   0.084, -0.160,  0.196, 5,  67.856, -7.969, 10.706
162537.31747, 3,   0.372, -0.166,  9.290, 4,  -0.042, -0.145,  0.185, 5,  67.894, -8.363, 10.013
162537.33692, 3,   0.480, -0.250,  9.398, 4,  -0.125, -0.130,  0.156, 5,  67.894, -8.981,  9.563
162537.35636, 3,   0.589, -0.280,  9.416, 4,  -0.179, -0.074,  0.115, 5,  67.988, -9.544,  9.150
162537.37581, 3,   0.578, -0.227,  9.581, 4,  -0.194,  0.006,  0.057, 5,  67.894, -9.769,  8.850
162537.39525, 3,   0.473, -0.136, 10.010, 4,  -0.217,  0.074,  0.004
162537.41470, 3,   0.394, -0.048, 10.293, 4,  -0.213,  0.077, -0.006, 5,  67.706, -9.938,  8.700
162537.43414, 3,   0.360, -0.008, 10.481, 4,  -0.146,  0.044,  0.004, 5,  67.481,-10.256,  8.269
162537.45359, 3,   0.346, -0.073, 10.217, 4,  -0.027, -0.025, -0.002, 5,  67.144,-10.406,  7.856
162537.47304, 3,   0.301, -0.025,  9.835, 4,   0.077, -0.067, -0.014, 5,  66.806,-10.425,  7.631
162537.49248, 3,   0.273,  0.023,  9.549, 4,   0.113, -0.101, -0.021, 5,  66.394,-10.669,  7.631
162537.51193, 3,   0.187,  0.042,  9.477, 4,   0.095, -0.075, -0.010, 5,  66.244,-10.519,  7.519
162537.53137, 3,   0.244,  0.029,  9.551, 4,   0.041, -0.075,  0.011, 5,  66.038,-10.313,  7.256
162537.55082, 3,   0.338,  0.061,  9.582, 4,   0.005, -0.052,  0.033, 5,  66.000,-10.275,  7.256
162537.57026, 3,   0.301,  0.123,  9.508, 4,  -0.014, -0.007,  0.025, 5,  66.113,-10.125,  6.956
162537.58971, 3,   0.238,  0.199,  9.677, 4,  -0.048,  0.044,  0.012, 5,  66.356, -9.994,  7.031
162537.60916, 3,   0.169,  0.205, 10.120, 4,  -0.090,  0.072,  0.017, 5,  66.413,-10.050,  7.256
162537.62860, 3,   0.240,  0.152, 10.278, 4,  -0.070,  0.055,  0.040, 5,  66.544,-10.069,  7.181
162537.64805, 3,   0.419,  0.092, 10.042, 4,   0.015,  0.011,  0.058, 5,  66.675, -9.806,  7.369
162537.66749, 3,   0.419,  0.081,  9.762, 4,   0.086, -0.007,  0.047, 5,  66.731, -9.488,  7.519
162537.68694, 3,   0.359,  0.065,  9.689, 4,   0.099, -0.011,  0.028, 5,  66.919, -9.525,  7.688
162537.70638, 3,   0.314,  0.048,  9.749, 4,   0.085, -0.023,  0.027, 5,  67.050, -9.450,  7.688
162537.72583, 3,   0.225,  0.106,  9.812, 4,   0.090, -0.035,  0.040, 5,  67.144, -9.563,  7.706
162537.74528, 3,   0.211,  0.038,  9.655, 4,   0.114, -0.073,  0.045, 5,  67.163, -9.638,  7.688
162537.76472, 3,   0.286,  0.033,  9.554, 4,   0.129, -0.097,  0.051, 5,  67.388, -9.338,  7.631
162537.78417, 3,   0.299,  0.159,  9.417, 4,   0.122, -0.078,  0.046, 5,  67.556, -9.263,  7.950
162537.80361, 3,   0.280,  0.245,  9.429, 4,   0.089, -0.020,  0.044, 5,  67.913, -9.169,  8.006
162537.82306, 3,   0.257,  0.299,  9.612, 4,   0.045, -0.005,  0.042, 5,  68.138, -9.394,  8.119
162537.84250, 3,   0.213,  0.320,  9.728, 4,   0.005, -0.002,  0.048, 5,  68.175, -9.206,  8.081
162537.86195, 3,   0.225,  0.303,  9.802, 4,  -0.002,  0.004,  0.058, 5,  68.119, -9.000,  8.344
162537.88140, 3,   0.310,  0.239,  9.781, 4,   0.009,  0.012,  0.065, 5,  68.213, -8.850,  8.456
162537.90084, 3,   0.369,  0.200,  9.722, 4,   0.030,  0.029,  0.062, 5,  68.250, -8.625,  8.456
162537.92029, 3,   0.491,  0.201,  9.763, 4,   0.038,  0.042,  0.066, 5,  68.250, -8.719,  8.606
162537.93973, 3,   0.549,  0.243,  9.637, 4,   0.043,  0.042,  0.063, 5,  68.344, -8.663,  8.400
162537.95918, 3,   0.518,  0.130,  9.253, 4,   0.050,  0.079,  0.048, 5,  68.175, -8.888,  8.400
162537.97862, 3,   0.465,  0.189,  9.845, 4,   0.019,  0.138,  0.031, 5,  67.875, -8.831,  8.306
162537.99807, 3,   0.666,  0.092,  9.875, 4,  -0.085,  0.077, -0.002, 5,  67.725, -9.019,  8.269
162538.01752, 3,   0.658,  0.144,  9.875, 4,  -0.047, -0.011, -0.041, 5,  67.763, -9.431,  8.044
162538.03696, 3,   0.424,  0.170,  9.477, 4,   0.043,  0.044, -0.099, 5,  67.781, -9.506,  8.063
