timestamp,accel,accelX,accelY,accelZ,gyro,gyroX,gyroY,gyroZ,magno,magnoX,magnoY,magnoZ
162548.40153,3,-1.063,-0.002,9.418
162548.42098,3,-0.681,0.167,10.752
162548.44043,3,-0.085,0.072,10.402,4,-0.172,-0.308,0.008
162548.45987,3,-0.047,0.162,9.243,4,0.066,-0.222,0.010,5,32.231,-0.581,4.556
162548.47932,3,-0.372,0.233,9.202,4,0.073,0.007,-0.010,5,32.813,-0.863,5.025
162548.49876,3,-0.274,0.104,9.438,4,-0.056,-0.009,0.004,5,33.056,-1.406,5.325
162548.51821,3,-0.173,0.091,9.569,4,-0.133,-0.021,0.034,5,32.813,-1.538,5.644
162548.53765,3,-0.215,0.109,9.751,4,-0.170,-0.017,0.041,5,32.925,-1.913,5.606
162548.55710,3,-0.153,0.078,9.761,4,-0.171,-0.034,0.037,5,32.794,-2.044,5.513
162548.57655,3,-0.102,0.067,9.895,4,-0.151,-0.053,0.020,5,32.813,-2.100,5.569
162548.59599,3,-0.128,-0.048,9.943,4,-0.131,-0.106,-0.005,5,32.738,-2.288,5.475
162548.61544,3,-0.148,-0.060,9.744,4,-0.092,-0.159,-0.031,5,32.756,-2.700,5.381
162548.63488,3,-0.042,-0.100,9.737,4,-0.073,-0.143,-0.027,5,32.606,-2.925,5.081
162548.65433,3,-0.024,-0.106,9.701,4,-0.068,-0.127,-0.011,5,32.381,-2.944,5.006
162548.67377,3,0.005,-0.116,9.661,4,-0.060,-0.139,-0.003,5,32.456,-2.831,4.875
162548.69322,3,0.022,-0.141,9.757,4,-0.072,-0.075,0.002,5,32.400,-2.813,4.800
162548.71267,3,0.001,-0.196,9.755,4,-0.073,-0.053,-0.000,5,32.531,-2.850,4.800
162548.73211,3,-0.002,-0.295,9.698,4,-0.058,-0.040,-0.005,5,32.475,-3.094,4.744
162548.75156,3,0.065,-0.266,9.635,4,-0.059,0.005,-0.001,5,32.456,-3.113,4.725
162548.77100,3,0.072,-0.225,9.560,4,-0.069,0.006,-0.002,5,32.588,-3.038,5.044
162548.79045,3,0.056,-0.257,9.611,4,-0.089,0.009,-0.013,5,32.850,-3.094,5.475
162548.80989,3,-0.038,-0.302,9.761,4,-0.116,0.011,-0.022,5,32.756,-3.263,5.644
162548.82934,3,-0.032,-0.298,9.826,4,-0.121,0.004,-0.025,5,32.644,-3.619,5.625
162548.84879,3,0.001,-0.295,9.845,4,-0.100,-0.015,-0.022,5,32.681,-3.563,5.775
162548.86823,3,0.014,-0.284,9.658,4,-0.065,-0.026,-0.027,5,32.513,-3.525,5.738
162548.88768,3,0.005,-0.327,9.478,4,-0.054,-0.019,-0.040,5,32.588,-3.375,5.794
162548.90712,3,0.019,-0.322,9.587,4,-0.086,-0.005,-0.051,5,32.625,-3.375,5.888
162548.92657,3,0.035,-0.362,9.732,4,-0.120,0.005,-0.062,5,32.625,-3.281,5.588
162548.94601,3,0.001,-0.359,9.817,4,-0.125,0.011,-0.074,5,32.475,-3.263,5.288
162548.96546,3,0.062,-0.437,9.725,4,-0.110,-0.005,-0.075,5,32.775,-3.075,4.950
162548.98491,3,0.173,-0.482,9.649,4,-0.097,-0.017,-0.072,5,32.925,-2.944,4.819
162549.00435,3,0.171,-0.468,9.652,4,-0.098,0.004,-0.091,5,32.963,-2.719,4.781
162549.02380,3,0.104,-0.488,9.761,4,-0.107,0.040,-0.125
162549.04324,3,0.012,-0.539,9.743,4,-0.113,0.052,-0.150,5,32.869,-2.888,4.894
162549.06269,3,-0.095,-0.588,9.746,4,-0.110,0.037,-0.164,5,32.569,-2.663,4.631
162549.08213,3,-0.132,-0.636,9.663,4,-0.105,0.010,-0.156,5,32.400,-2.381,4.444
162549.10158,3,-0.111,-0.639,9.642,4,-0.103,-0.051,-0.131,5,32.156,-2.306,4.613
162549.12103,3,0.030,-0.643,9.539,4,-0.104,-0.130,-0.093,5,31.894,-2.288,4.688
162549.14047,3,0.164,-0.564,9.429,4,-0.094,-0.176,-0.066,5,31.800,-2.306,4.800
162549.15992,3,0.269,-0.529,9.262,4,-0.104,-0.185,-0.065,5,31.725,-2.156,4.950
162549.17936,3,0.159,-0.566,9.444,4,-0.153,-0.124,-0.080,5,31.575,-2.213,4.763
162549.19881,3,-0.049,-0.638,9.743,4,-0.213,-0.089,-0.077,5,31.613,-2.081,4.631
162549.21825,3,-0.024,-0.669,10.041,4,-0.221,-0.147,-0.039,5,31.763,-1.950,4.725
162549.23770,3,0.256,-0.760,9.903,4,-0.165,-0.224,-0.005,5,31.950,-1.969,4.744
162549.25715,3,0.399,-0.786,9.740,4,-0.130,-0.190,-0.009,5,32.250,-2.006,4.688
162549.27659,3,0.413,-0.803,9.625,4,-0.109,-0.123,-0.036,5,32.438,-2.138,4.688
162549.29604,3,0.329,-0.851,9.521,4,-0.097,-0.144,-0.069,5,32.363,-2.231,4.538
162549.31548,3,0.377,-0.876,9.487,4,-0.091,-0.186,-0.092,5,32.513,-2.381,4.313
162549.33493,3,0.429,-0.850,9.286,4,-0.104,-0.165,-0.116,5,32.663,-2.419,4.350
162549.35437,3,0.395,-0.825,9.395,4,-0.111,-0.102,-0.152,5,32.850,-2.288,4.125
162549.37382,3,0.358,-0.874,9.411,4,-0.004,-0.078,-0.174,5,32.850,-2.381,4.031
162549.39327,3,0.354,-0.746,9.241,4,0.140,-0.069,-0.173,5,32.925,-2.400,3.956
162549.41271,3,0.276,-0.541,8.935,4,0.172,-0.089,-0.148,5,32.794,-2.306,3.713
162549.43216,3,0.206,-0.392,8.753,4,0.056,-0.109,-0.121,5,32.906,-2.100,3.600
162549.45160,3,0.165,-0.275,8.810,4,-0.115,-0.034,-0.097,5,33.075,-1.763,3.900
162549.47105,3,0.090,-0.148,8.883,4,-0.248,0.083,-0.096,5,32.906,-1.575,3.788
162549.49049,3,-0.093,-0.007,9.426,4,-0.324,0.201,-0.086,5,32.644,-1.463,3.600
162549.50994,3,-0.165,0.132,10.279,4,-0.380,0.215,-0.026,5,32.700,-1.238,3.694
162549.52939,3,-0.171,0.144,10.745,4,-0.390,0.160,0.064,5,32.775,-1.331,3.788
162549.54883,3,-0.189,0.189,10.570,4,-0.342,0.070,0.131,5,32.719,-1.144,4.031
162549.56828,3,-0.164,0.051,10.260,4,-0.300,0.042,0.164,5,32.869,-1.219,4.200
162549.58772,3,-0.092,-0.251,9.992,4,-0.273,0.087,0.166,5,32.756,-1.013,4.163
162549.60717,3,-0.185,-0.506,9.976,4,-0.225,0.166,0.109,5,32.869,-1.163,3.975
162549.62661,3,-0.211,-0.570,10.003,4,-0.177,0.216,0.025,5,32.831,-1.313,3.975
162549.64606,3,-0.289,-0.539,10.129,4,-0.087,0.322,-0.067,5,33.188,-1.406,4.050
162549.66551,3,-0.408,-0.400,10.414,4,0.027,0.469,-0.132
162549.68495,3,-0.528,-0.594,10.199,4,0.186,0.473,-0.138,5,33.188,-1.856,4.163
162549.70440,3,-0.413,-0.636,9.233,4,0.367,0.441,-0.098
162549.72384,3,-0.069,-0.523,8.701,4,0.370,0.404,-0.079,5,33.338,-2.081,4.163
162549.74329,3,0.238,-0.239,8.777,4,0.214,0.278,-0.054,5,33.075,-2.100,4.331
162549.76273,3,0.800,-0.245,9.601,4,-0.106,0.099,-0.053,5,32.888,-2.119,4.500
162549.78218,3,0.977,-0.032,10.775,4,-0.383,0.002,-0.107,5,32.663,-1.988,4.819
162549.80163,3,0.845,0.657,11.594,4,-0.427,-0.114,-0.254,5,32.644,-1.950,5.194
162549.82107,3,0.658,0.901,11.832,4,-0.167,-0.197,-0.266,5,32.344,-1.875,5.325
162549.84052,3,0.327,1.612,11.356,4,0.236,-0.238,-0.218,5,32.550,-1.800,5.775
162549.85996,3,0.376,1.504,10.327,4,0.583,-0.306,-0.161,5,32.513,-1.613,5.963
162549.87941,3,0.353,1.067,9.521,4,0.810,-0.221,-0.110,5,32.344,-1.200,5.869
162549.89885,3,0.267,0.848,8.419,4,0.877,-0.177,-0.013,5,32.456,-1.013,5.869
162549.91830,3,0.596,0.884,7.552,4,0.821,-0.118,0.114,5,32.700,-1.069,5.681
162549.93775,3,1.083,1.007,7.027,4,0.625,-0.095,0.178,5,32.888,-1.106,5.363
162549.95719,3,1.247,1.320,6.991,4,0.325,-0.084,0.089,5,32.756,-1.144,5.288
162549.97664,3,0.948,1.695,7.306,4,-0.032,-0.067,-0.205,5,32.756,-0.919,5.288
162549.99608,3,0.354,1.730,8.574,4,-0.374,0.015,-0.586,5,32.606,-0.675,4.950
162550.01553,3,-0.630,1.827,9.998,4,-0.637,0.044,-0.860,5,32.513,-0.544,4.669
162550.03497,3,-1.638,1.969,11.665,4,-0.706,0.010,-0.817,5,32.738,-0.656,4.650
162550.05442,3,-1.770,2.463,12.529,4,-0.489,-0.039,-0.514,5,32.719,-0.413,4.669
162550.07387,3,-1.519,2.341,12.400,4,-0.105,-0.292,-0.181,5,32.681,-0.056,4.669
162550.09331,3,-1.077,1.658,11.579,4,0.262,-0.346,0.078,5,32.531,0.056,4.556
162550.11276,3,-0.845,1.471,10.793,4,0.424,-0.354,0.205,5,32.869,0.431,4.631
162550.13220,3,-0.671,1.617,10.783,4,0.334,-0.104,0.332,5,33.188,0.525,4.538
162550.15165,3,-0.516,2.142,11.274,4,0.253,0.032,0.603,5,33.338,0.806,4.463
162550.17110,3,0.103,2.563,11.942,4,0.227,0.017,0.974,5,33.431,1.125,4.256
162550.19054,3,1.250,1.560,12.343,4,0.370,-0.118,1.393,5,33.300,0.938,4.013
162550.20999,3,2.158,-0.740,11.383,4,0.757,-0.255,1.565,5,33.244,0.394,3.713
162550.22943,3,2.096,-2.171,9.624,4,0.936,-0.150,1.355,5,33.431,-0.188,3.788
162550.24888,3,1.962,-3.061,10.574,4,0.697,0.126,0.967,5,33.656,-0.488,3.638
162550.26832,3,1.813,-3.500,12.223,4,0.518,0.219,0.462,5,33.656,-0.994,3.488
162550.28777,3,1.647,-3.784,12.149,4,0.475,-0.040,0.144,5,33.638,-1.613,3.656
162550.30722,3,1.715,-3.713,10.934,4,0.496,-0.126,0.067,5,33.525,-2.156,3.544
162550.32666,3,1.354,-3.735,9.367,4,0.444,-0.032,0.120,5,33.413,-2.719,3.525
162550.34611,3,0.071,-4.257,9.003,4,0.375,0.120,0.135,5,33.506,-3.113,3.563
162550.36555,3,-1.222,-4.296,9.271,4,0.228,0.221,0.039,5,33.488,-3.131,3.731
162550.38500,3,-1.996,-4.089,9.404,4,-0.050,0.404,-0.115,5,33.281,-3.225,3.731
162550.40444,3,-2.047,-2.231,9.956,4,-0.321,0.770,-0.267,5,33.075,-3.263,3.694
162550.42389,3,-1.369,-1.333,9.489,4,-0.527,0.857,-0.117
162550.44334,3,-0.837,-1.256,8.479,4,-0.551,0.584,0.264,5,32.963,-3.338,3.769
162550.46278,3,-0.879,-0.050,8.462,4,-0.429,0.364,0.368,5,32.625,-3.544,3.525
162550.48223,3,-0.826,1.118,8.324,4,-0.115,0.170,0.183,5,32.513,-3.769,3.825
162550.50167,3,-0.497,0.331,8.825,4,0.006,0.007,0.040,5,32.419,-3.975,4.144
162550.52112,3,-0.560,0.242,9.107,4,0.110,0.154,0.020,5,32.438,-3.956,4.350
162550.54056,3,-0.740,0.071,8.619,4,0.299,0.278,0.091,5,32.325,-4.256,4.331
162550.56001,3,-0.691,-0.237,8.229,4,0.405,0.295,0.228,5,32.438,-4.388,4.556
162550.57946,3,-0.463,-0.593,8.371,4,0.347,0.193,0.336,5,32.325,-4.650,4.819
162550.59890,3,-0.080,-1.156,8.586,4,0.186,-0.029,0.375,5,32.175,-4.838,4.725
162550.61835,3,0.041,-1.475,8.894,4,0.007,-0.152,0.273,5,32.400,-4.688,4.988
162550.63779,3,0.214,-1.420,9.319,4,-0.061,-0.135,0.062,5,32.513,-4.781,5.100
162550.65724,3,0.414,-1.690,9.487,4,-0.059,-0.069,-0.127,5,32.531,-5.044,5.063
162550.67668,3,-0.019,-1.914,9.530,4,-0.100,-0.004,-0.332,5,32.213,-5.250,5.231
162550.69613,3,-0.778,-1.307,10.168,4,-0.206,0.071,-0.503,5,32.419,-5.194,5.456
162550.71558,3,-0.900,-1.333,10.608,4,-0.218,-0.062,-0.567,5,32.456,-5.325,5.306
162550.73502,3,-1.087,-1.459,10.509,4,-0.014,-0.165,-0.506,5,32.494,-5.419,5.250
162550.75447,3,-1.354,-1.431,9.938,4,0.268,-0.131,-0.417,5,32.531,-5.156,5.231
162550.77391,3,-1.315,-1.061,9.361,4,0.407,-0.128,-0.303,5,32.419,-5.231,5.213
162550.79336,3,-0.911,-0.749,9.395,4,0.384,-0.165,-0.195,5,32.419,-5.231,5.119
162550.81280,3,-0.695,-0.715,9.305,4,0.329,-0.185,-0.134,5,32.513,-4.950,5.175
162550.83225,3,-0.744,-0.839,9.218,4,0.284,-0.160,-0.144,5,32.475,-4.688,4.913
162550.85170,3,-0.691,-0.849,9.157,4,0.227,-0.116,-0.151,5,32.456,-4.425,4.631
162550.87114,3,-0.565,-0.676,9.172,4,0.146,-0.111,-0.119,5,32.513,-4.106,4.575
162550.89059,3,-0.335,-0.415,9.095,4,0.053,-0.100,-0.073,5,32.644,-3.544,4.669
162550.91003,3,-0.097,-0.135,9.119,4,-0.061,-0.059,-0.033,5,32.775,-3.356,4.706
162550.92948,3,0.068,0.051,9.345,4,-0.182,-0.004,-0.012,5,32.869,-3.319,4.538
162550.94892,3,0.081,0.146,9.738,4,-0.266,0.022,-0.030,5,32.888,-3.206,4.313
162550.96837,3,-0.072,0.148,10.164,4,-0.301,0.040,-0.074,5,32.888,-3.263,3.938
162550.98782,3,-0.134,0.195,10.322,4,-0.263,0.043,-0.108,5,33.281,-3.075,3.975
162551.00726,3,-0.134,0.371,10.256,4,-0.174,0.036,-0.113,5,33.300,-3.244,4.181
162551.02671,3,-0.103,0.505,9.981,4,-0.077,0.015,-0.104,5,33.150,-3.281,4.275
162551.04615,3,-0.175,0.546,9.889,4,-0.017,-0.008,-0.113,5,33.150,-3.394,4.331
162551.06560,3,-0.316,0.500,9.872,4,0.001,-0.051,-0.135,5,33.113,-3.450,4.444
162551.08505,3,-0.488,0.442,10.025,4,0.014,-0.073,-0.147,5,33.113,-3.394,4.631
162551.10449,3,-0.449,0.384,9.875,4,0.062,-0.078,-0.126,5,33.056,-3.244,4.763
162551.12394,3,-0.402,0.377,9.576,4,0.109,-0.047,-0.068
162551.14338,3,-0.295,0.279,9.354,4,0.090,-0.031,0.000,5,33.338,-3.244,5.100
162551.16283,3,-0.203,0.109,9.475,4,0.019,-0.031,0.051,5,33.169,-3.300,4.988
162551.18227,3,-0.112,0.013,9.609,4,-0.047,-0.040,0.078,5,33.281,-3.131,4.931
162551.20172,3,-0.067,0.060,9.891,4,-0.071,-0.040,0.086,5,33.300,-3.056,4.763
162551.22117,3,0.011,0.122,9.846,4,-0.045,-0.099,0.068,5,33.150,-3.263,4.763
162551.24061,3,0.209,0.114,9.580,4,0.017,-0.169,0.042,5,33.188,-3.281,4.706
162551.26006,3,0.196,0.144,9.393,4,0.019,-0.159,-0.004,5,33.188,-3.356,4.500
162551.27950,3,0.098,0.244,9.502,4,-0.036,-0.094,-0.068,5,33.338,-3.338,4.294
162551.29895,3,-0.057,0.299,9.654,4,-0.094,-0.046,-0.125,5,33.375,-3.094,4.106
162551.31839,3,-0.236,0.307,9.775,4,-0.123,-0.038,-0.153,5,33.150,-2.963,4.313
162551.33784,3,-0.473,0.323,9.755,4,-0.117,-0.037,-0.168,5,33.056,-2.925,3.844
162551.35729,3,-0.625,0.462,9.685,4,-0.080,-0.042,-0.173,5,32.981,-2.944,3.788
162551.37673,3,-0.666,0.632,9.619,4,-0.059,-0.056,-0.158,5,33.038,-2.625,3.675
162551.39618,3,-0.639,0.811,9.692,4,-0.066,-0.036,-0.103,5,33.056,-2.400,3.525
162551.41562,3,-0.572,0.890,9.836,4,-0.078,-0.004,-0.011,5,32.981,-2.119,3.656
162551.43507,3,-0.427,0.955,9.915,4,-0.075,0.012,0.086,5,32.925,-2.175,3.619
162551.45451,3,-0.194,0.834,9.867,4,-0.053,-0.005,0.145,5,32.588,-2.381,3.675
162551.47396,3,-0.118,0.634,9.731,4,-0.000,0.000,0.144,5,32.794,-2.644,3.450
162551.49341,3,-0.100,0.436,9.404,4,0.113,0.038,0.125,5,32.681,-2.531,3.750
162551.51285,3,-0.037,0.217,8.853,4,0.310,0.090,0.119,5,32.775,-2.381,3.563
162551.53230,3,-0.061,0.481,7.828,4,0.513,0.075,0.080,5,32.981,-2.644,3.356
162551.55174,3,0.424,0.569,7.371,4,0.565,0.029,-0.001,5,33.075,-3.000,3.319
162551.57119,3,0.500,1.089,7.255,4,0.327,-0.042,-0.172,5,33.019,-3.113,3.338
162551.59063,3,0.402,1.586,8.130,4,-0.288,-0.264,-0.368,5,32.981,-2.963,3.450
162551.61008,3,0.357,2.095,10.670,4,-1.067,-0.323,-0.450,5,33.113,-2.831,3.338
162551.62953,3,0.075,2.282,13.109,4,-1.498,-0.233,-0.345,5,33.075,-2.663,3.150
162551.64897,3,-0.594,2.413,14.145,4,-1.246,0.021,-0.222,5,33.225,-2.663,2.888
162551.66842,3,-0.764,2.358,13.921,4,-0.584,0.287,-0.132,5,33.338,-2.588,2.963
162551.68786,3,-0.557,1.717,12.568,4,0.177,0.477,-0.056,5,33.113,-2.250,2.794
162551.70731,3,-0.937,1.300,10.468,4,0.844,0.422,0.081,5,33.038,-1.931,2.850
162551.72675,3,-1.021,0.919,8.801,4,1.232,0.248,0.268,5,33.375,-1.688,2.531
162551.74620,3,-0.325,0.697,7.437,4,1.317,0.069,0.480,5,33.206,-1.594,2.531
162551.76565,3,0.251,0.866,6.591,4,1.152,-0.073,0.588,5,33.131,-1.519,2.700
162551.78509,3,0.675,1.001,6.711,4,0.758,-0.121,0.633,5,33.000,-1.575,2.944
162551.80454,3,0.896,1.186,7.180,4,0.327,-0.183,0.632,5,33.000,-1.800,3.113
162551.82398,3,0.896,1.640,7.817,4,-0.017,-0.207,0.565
162551.84343,3,1.232,2.471,8.434,4,-0.274,-0.200,0.488,5,32.888,-2.250,3.338
162551.86288,3,1.665,3.463,9.287,4,-0.481,-0.168,0.412,5,32.869,-2.606,3.600
162551.88232,3,1.819,3.333,10.236,4,-0.592,-0.136,0.254,5,32.719,-3.038,3.375
162551.90177,3,0.949,3.040,11.145,4,-0.515,-0.079,-0.052,5,32.381,-3.469,3.300
162551.92121,3,-0.242,2.666,11.411,4,-0.248,0.004,-0.310,5,32.625,-3.694,3.094
162551.94066,3,-0.492,2.133,10.808,4,0.117,0.041,-0.338,5,32.663,-3.825,2.794
162551.96010,3,-0.542,2.059,9.924,4,0.469,0.039,-0.217,5,32.831,-3.938,2.569
162551.97955,3,-0.687,2.161,9.077,4,0.692,-0.003,-0.020,5,32.869,-4.106,2.363
162551.99900,3,-0.627,2.302,8.426,4,0.705,-0.074,0.220,5,32.869,-3.900,2.063
162552.01844,3,-0.013,2.701,8.390,4,0.458,-0.127,0.452,5,32.925,-3.731,1.950
162552.03789,3,0.589,3.347,9.028,4,0.075,-0.136,0.610,5,32.925,-3.563,1.913
162552.05733,3,0.765,3.852,10.037,4,-0.241,-0.121,0.650,5,33.094,-3.394,1.781
162552.07678,3,0.807,3.816,11.197,4,-0.351,-0.051,0.586,5,33.019,-3.563,1.913
162552.09622,3,0.722,4.262,11.994,4,-0.248,-0.018,0.543,5,32.719,-3.919,2.025
162552.11567,3,1.058,4.241,12.489,4,-0.005,-0.055,0.638,5,32.831,-4.275,2.100
162552.13512,3,1.807,1.892,11.688,4,0.348,-0.152,0.849,5,32.625,-4.294,2.138
162552.15456,3,1.474,0.245,10.172,4,0.584,-0.115,0.973,5,32.588,-4.875,2.213
162552.17401,3,1.559,-0.845,10.309,4,0.348,-0.161,1.031,5,32.531,-5.325,1.913
162552.19345,3,1.790,-0.976,12.320,4,-0.084,-0.378,0.768,5,32.588,-5.850,2.025
162552.21290,3,1.830,-1.598,13.624,4,-0.332,-0.635,0.491,5,32.400,-6.581,2.138
162552.23234,3,1.711,-2.509,12.539,4,-0.100,-0.733,0.251,5,32.306,-7.106,1.781
162552.25179,3,1.128,-2.811,10.483,4,0.476,-0.427,0.011,5,32.606,-7.313,1.350
162552.27124,3,0.351,-2.845,8.969,4,0.761,-0.193,-0.272,5,32.419,-7.650,0.919
162552.29068,3,-0.523,-2.581,8.837,4,0.519,-0.275,-0.377,5,32.306,-8.044,0.506
162552.31013,3,-0.933,-1.818,9.753,4,-0.023,-0.308,-0.452,5,32.269,-8.119,0.300
162552.32957,3,-0.648,-1.367,10.946,4,-0.629,-0.114,-0.403,5,32.456,-8.419,0.356
162552.34902,3,-0.547,-0.579,10.984,4,-0.728,0.285,-0.122,5,32.700,-8.400,0.019
162552.36846,3,-0.231,0.272,10.509,4,-0.381,0.613,0.124,5,32.869,-8.269,-0.281
162552.38791,3,0.153,0.571,9.643,4,0.190,0.675,0.295,5,32.906,-8.119,-0.150
162552.40736,3,0.372,0.616,8.410,4,0.724,0.439,0.264,5,32.963,-8.381,-0.038
162552.42680,3,0.398,0.140,7.582,4,0.874,0.166,0.069,5,33.056,-8.231,0.300
162552.44625,3,0.214,-0.389,7.566,4,0.664,-0.007,-0.109,5,33.169,-8.250,0.619
162552.46569,3,0.013,-0.529,8.183,4,0.328,-0.135,-0.194,5,33.431,-8.138,0.619
162552.48514,3,0.237,-0.479,8.704,4,0.098,-0.266,-0.181
162552.50459,3,0.705,-0.260,8.680,4,0.029,-0.332,-0.135,5,33.094,-8.156,0.825
162552.52403,3,0.900,-0.059,8.430,4,0.046,-0.228,-0.123
162552.54348,3,0.958,-0.002,8.418,4,-0.039,-0.061,-0.140,5,33.056,-8.044,1.106
162552.56292,3,0.849,-0.001,9.081,4,-0.234,0.126,-0.152,5,33.188,-7.950,1.163
162552.58237,3,0.681,0.122,9.994,4,-0.382,0.204,-0.174,5,33.169,-7.856,1.219
162552.60181,3,0.499,0.018,10.412,4,-0.359,0.258,-0.247,5,33.056,-7.988,1.106
162552.62126,3,0.211,0.014,10.339,4,-0.166,0.317,-0.379,5,33.075,-8.063,0.919
162552.64071,3,-0.071,0.048,10.037,4,0.032,0.299,-0.523,5,32.850,-7.988,0.750
162552.66015,3,-0.268,0.016,9.625,4,0.177,0.192,-0.598,5,32.906,-8.063,0.844
162552.67960,3,-0.274,-0.223,9.010,4,0.266,0.047,-0.568,5,33.075,-7.744,1.088
162552.69904,3,-0.407,-0.310,8.677,4,0.197,-0.038,-0.491,5,33.356,-7.594,1.294
162552.71849,3,-0.418,-0.080,8.935,4,0.011,-0.098,-0.395,5,33.150,-7.556,1.106
162552.73793,3,-0.291,0.276,9.248,4,-0.112,-0.094,-0.306,5,33.263,-7.031,1.069
162552.75738,3,-1.222,1.414,9.121,4,-0.146,-0.019,-0.246,5,33.375,-6.825,1.181
162552.77683,3,-0.520,0.435,9.665,4,-0.176,0.108,-0.090,5,33.431,-6.431,1.313
162552.79627,3,0.124,-0.207,9.876,4,-0.225,0.024,0.004,5,33.506,-6.075,1.556
162552.81572,3,0.169,-0.097,9.756,4,-0.233,0.009,-0.066,5,33.600,-5.738,1.181
162552.83516,3,-0.160,0.106,9.744,4,-0.223,0.010,-0.147,5,33.713,-5.625,0.806
162552.85461,3,-0.173,0.219,9.712,4,-0.252,-0.055,-0.104,5,33.431,-5.550,0.581
162552.87405,3,0.139,0.145,9.685,4,-0.300,-0.084,0.048,5,33.694,-5.438,0.563
162552.89350,3,0.280,0.123,9.799,4,-0.348,-0.078,0.198,5,33.750,-5.513,0.713
162552.91295,3,0.470,-0.014,9.843,4,-0.354,-0.077,0.249,5,33.844,-5.400,0.488
162552.93239,3,0.150,0.628,9.613,4,-0.321,-0.082,0.237,5,33.863,-5.475,0.375
162552.95184,3,0.588,0.333,9.587,4,-0.297,0.008,0.238,5,33.788,-5.738,0.281
162552.97128,3,0.461,0.408,9.894,4,-0.287,-0.007,0.217,5,33.581,-5.869,0.506
162552.99073,3,0.381,0.504,9.752,4,-0.262,0.014,0.227,5,33.225,-5.925,0.581
162553.01018,3,0.790,0.352,9.727,4,-0.237,0.042,0.274,5,33.338,-6.131,0.356
162553.02962,3,1.097,0.112,9.624,4,-0.235,0.036,0.305,5,33.225,-6.413,0.525
162553.04907,3,1.278,-0.093,9.710,4,-0.265,0.065,0.237,5,33.188,-6.544,0.356
162553.06851,3,1.045,0.240,9.718,4,-0.279,0.090,0.099,5,33.131,-6.713,0.488
162553.08796,3,0.849,0.382,9.752,4,-0.247,0.179,-0.031,5,33.094,-6.619,0.581
162553.10740,3,0.704,0.398,9.655,4,-0.224,0.228,-0.095,5,33.075,-6.769,0.619
162553.12685,3,0.223,0.792,9.645,4,-0.253,0.244,-0.119,5,32.963,-6.694,0.450
162553.14630,3,0.392,0.073,10.078,4,-0.289,0.222,-0.097,5,33.094,-6.881,0.506
162553.16574,3,0.522,-0.156,10.368,4,-0.306,0.073,-0.089,5,32.963,-6.844,0.769
162553.18519,3,0.227,0.401,10.467,4,-0.220,-0.003,-0.168,5,32.963,-6.619,0.788
162553.20463,3,0.019,0.542,10.354,4,-0.058,-0.014,-0.229,5,32.700,-6.563,0.806
162553.22408,3,-0.162,0.351,9.835,4,0.103,-0.039,-0.234
162553.24352,3,-0.276,0.160,9.212,4,0.199,-0.042,-0.224,5,32.738,-6.319,0.731
162553.26297,3,-0.261,0.220,8.911,4,0.192,-0.038,-0.198,5,32.738,-6.319,0.863
162553.28242,3,-0.182,0.321,8.913,4,0.117,-0.038,-0.133,5,32.925,-6.038,0.769
162553.30186,3,0.071,0.358,8.986,4,0.027,-0.066,-0.049,5,33.113,-6.075,0.938
162553.32131,3,0.260,0.390,8.796,4,-0.047,-0.106,0.036,5,33.113,-5.663,1.069
162553.34075,3,0.427,0.593,8.815,4,-0.102,-0.103,0.062,5,33.188,-5.663,0.806
162553.36020,3,0.771,0.648,8.868,4,-0.112,-0.082,0.041,5,33.169,-5.588,0.788
162553.37964,3,0.835,0.636,8.734,4,-0.125,-0.076,-0.037,5,33.356,-5.475,0.863
162553.39909,3,0.516,0.380,8.789,4,-0.249,-0.037,-0.101,5,33.169,-5.494,0.900
162553.41854,3,0.462,0.153,9.543,4,-0.609,-0.015,-0.095,5,33.056,-5.606,0.881
162553.43798,3,0.285,0.370,10.799,4,-0.980,-0.024,-0.016,5,33.188,-5.756,0.806
162553.45743,3,0.095,0.340,12.137,4,-1.050,0.095,0.121,5,33.131,-5.906,0.825
162553.47687,3,-0.037,0.596,12.688,4,-0.783,0.220,0.181,5,33.206,-6.263,0.694
162553.49632,3,-0.190,1.160,11.899,4,-0.292,0.240,0.163,5,33.263,-6.281,0.713
162553.51577,3,-0.332,1.565,10.479,4,0.215,0.127,0.160,5,33.356,-6.319,0.675
162553.53521,3,-0.419,1.441,9.891,4,0.477,0.084,0.192,5,33.319,-6.656,0.600
162553.55466,3,-0.671,1.792,9.447,4,0.549,0.069,0.113,5,33.413,-6.975,0.638
162553.57410,3,-0.564,1.480,9.226,4,0.477,0.007,0.183,5,33.619,-7.069,0.544
162553.59355,3,0.151,0.949,9.026,4,0.383,0.057,0.477,5,33.394,-7.013,0.750
162553.61299,3,0.849,0.928,8.475,4,0.327,0.109,0.628,5,33.525,-7.106,0.788
162553.63244,3,1.181,1.233,8.205,4,0.288,0.189,0.620,5,33.375,-7.238,0.975
162553.65189,3,1.181,1.438,8.437,4,0.248,0.234,0.542,5,33.263,-7.238,1.106
162553.67133,3,1.056,1.474,8.717,4,0.148,0.157,0.390,5,33.150,-7.575,1.369
162553.69078,3,0.767,1.780,9.105,4,-0.016,-0.016,0.216,5,33.169,-7.594,1.406
162553.71022,3,0.674,2.152,9.914,4,-0.142,-0.111,0.082,5,33.131,-7.669,1.519
162553.72967,3,0.554,2.641,10.440,4,-0.080,-0.104,-0.004,5,33.113,-7.894,1.688
162553.74911,3,0.322,3.062,10.406,4,0.119,-0.023,-0.059,5,32.925,-8.063,1.594
162553.76856,3,0.151,3.264,10.195,4,0.259,0.014,-0.070,5,32.644,-8.100,1.481
162553.78801,3,0.319,3.306,10.041,4,0.297,-0.035,-0.012,5,32.756,-8.213,1.275
162553.80745,3,0.685,3.064,9.785,4,0.311,-0.077,0.084,5,32.925,-8.513,1.350
162553.82690,3,0.703,2.812,9.781,4,0.414,0.108,0.128,5,32.925,-8.475,1.088
162553.84634,3,0.768,2.611,10.066,4,0.484,0.398,0.104,5,32.850,-8.475,1.163
162553.86579,3,0.681,2.750,9.920,4,0.450,0.388,0.035,5,32.963,-8.456,1.238
162553.88523,3,0.997,2.698,9.792,4,0.385,0.147,0.066,5,32.756,-8.250,1.256
162553.90468,3,1.959,2.005,9.697,4,0.364,-0.127,0.239,5,32.831,-7.931,1.556
162553.92413,3,2.273,0.549,9.843,4,0.385,-0.180,0.297
162553.94357,3,2.018,0.267,10.919,4,0.365,-0.035,0.054,5,32.963,-7.931,1.688
162553.96302,3,1.478,0.177,12.355,4,0.166,-0.179,-0.244,5,32.888,-7.988,1.931
162553.98246,3,0.976,-0.721,14.050,4,-0.143,-0.414,-0.368,5,32.794,-7.950,1.875
162554.00191,3,0.737,-1.774,13.907,4,-0.365,-0.758,-0.336,5,33.019,-7.894,1.950
162554.02136,3,0.522,-2.466,12.653,4,-0.368,-0.817,-0.321,5,33.225,-7.875,1.613
162554.04080,3,0.074,-2.923,10.779,4,-0.149,-0.371,-0.375,5,33.338,-7.856,1.256
162554.06025,3,-0.502,-2.971,8.969,4,0.187,0.182,-0.438,5,33.488,-7.856,1.050
162554.07969,3,-1.001,-2.333,7.908,4,0.321,0.497,-0.463,5,33.863,-8.119,0.506
162554.09914,3,-1.049,-1.779,7.958,4,0.165,0.461,-0.353,5,34.294,-7.744,0.338
162554.11858,3,-0.839,-1.550,8.644,4,-0.039,0.335,-0.239,5,34.781,-7.481,0.338
162554.13803,3,-0.800,-1.397,9.068,4,-0.096,0.168,-0.215,5,34.950,-7.106,0.188
162554.15748,3,-1.007,-1.444,9.519,4,-0.043,0.148,-0.252,5,34.950,-6.844,0.206
162554.17692,3,-1.301,-1.324,9.804,4,0.010,0.184,-0.299,5,35.044,-6.488,0.488
162554.19637,3,-1.050,-1.120,9.818,4,0.051,0.124,-0.271,5,35.213,-5.906,0.731
162554.21581,3,-0.621,-0.878,9.591,4,0.127,0.017,-0.170,5,35.756,-5.756,0.788
162554.23526,3,-0.338,-0.621,9.136,4,0.198,-0.033,-0.132,5,36.131,-5.419,1.200
162554.25470,3,-0.050,-0.553,8.682,4,0.239,-0.039,-0.093,5,36.094,-5.231,1.294
162554.27415,3,0.128,-0.395,8.598,4,0.246,-0.010,0.001,5,36.094,-5.006,1.069
162554.29360,3,0.115,-0.289,8.638,4,0.190,-0.008,0.076,5,36.413,-4.856,1.200
162554.31304,3,0.175,-0.482,8.855,4,0.056,-0.046,0.076,5,36.844,-4.688,1.050
162554.33249,3,0.127,-0.420,9.324,4,-0.107,-0.070,0.035,5,36.956,-4.800,0.975
162554.35193,3,0.184,-0.261,9.981,4,-0.244,-0.046,0.033,5,37.238,-4.856,0.900
162554.37138,3,0.442,-0.308,10.094,4,-0.215,-0.058,0.084,5,37.163,-4.688,0.863
162554.39083,3,0.389,-0.285,9.749,4,-0.081,-0.012,0.069,5,37.313,-4.856,0.600
162554.41027,3,-0.147,-0.304,9.753,4,0.010,0.080,-0.020,5,37.613,-4.969,0.544
162554.42972,3,-0.578,-0.455,9.775,4,0.020,0.083,-0.101,5,37.969,-4.931,0.563
162554.44916,3,-0.610,-0.473,9.468,4,0.007,-0.044,-0.141,5,37.913,-5.006,0.375
162554.46861,3,-0.496,-0.382,9.268,4,-0.016,-0.076,-0.113,5,38.081,-5.213,0.394
162554.48805,3,-0.269,-0.142,8.967,4,-0.032,-0.006,0.018,5,38.269,-5.175,0.375
162554.50750,3,0.172,0.103,8.986,4,-0.069,0.073,0.169,5,38.175,-5.325,0.338
162554.52695,3,0.523,0.011,9.100,4,-0.113,0.039,0.264,5,38.269,-5.363,0.394
162554.54639,3,0.652,0.182,9.635,4,-0.236,-0.047,0.242,5,38.269,-5.194,0.600
162554.56584,3,0.408,0.348,10.311,4,-0.360,-0.100,0.092,5,38.025,-5.400,0.375
162554.58528,3,0.283,0.141,10.691,4,-0.352,-0.190,-0.029
162554.60473,3,0.427,0.102,10.570,4,-0.212,-0.251,-0.042,5,37.950,-5.719,0.525
162554.62417,3,0.717,0.240,9.690,4,0.032,-0.259,-0.024,5,37.781,-5.588,0.675
162554.64362,3,0.760,0.386,9.062,4,0.165,-0.113,-0.014
162554.66307,3,0.707,0.291,8.938,4,0.081,0.013,-0.019,5,37.500,-5.644,0.525
162554.68251,3,0.634,0.162,9.267,4,-0.077,0.066,-0.049,5,37.781,-5.625,0.544
162554.70196,3,0.266,0.359,9.855,4,-0.167,0.072,-0.116,5,38.006,-5.663,0.431
162554.72140,3,0.134,0.453,10.068,4,-0.143,-0.018,-0.161,5,37.894,-5.869,0.375
162554.74085,3,0.154,0.609,9.970,4,-0.079,-0.121,-0.158,5,38.063,-5.831,0.281
162554.76030,3,0.226,0.764,9.948,4,-0.030,-0.165,-0.164,5,38.006,-5.550,-0.188
162554.77974,3,0.299,0.709,9.845,4,-0.000,-0.140,-0.183,5,38.231,-5.606,-0.675
162554.79919,3,0.218,0.693,9.750,4,0.015,-0.064,-0.220,5,38.381,-5.719,-0.713
162554.81863,3,0.014,0.694,9.813,4,0.022,0.004,-0.241,5,38.831,-5.606,-0.656
162554.83808,3,-0.164,0.560,9.938,4,0.039,0.015,-0.214,5,38.513,-5.475,-0.956
162554.85752,3,-0.176,0.297,9.832,4,0.078,-0.011,-0.148,5,38.456,-5.269,-1.163
162554.87697,3,-0.005,0.230,9.543,4,0.132,-0.033,-0.067,5,38.550,-5.006,-1.350
162554.89642,3,0.129,0.336,9.395,4,0.165,-0.052,-0.008,5,38.738,-4.706,-1.050
162554.91586,3,0.221,0.470,9.306,4,0.158,-0.082,0.022,5,38.794,-4.444,-0.919
162554.93531,3,0.314,0.650,9.271,4,0.118,-0.104,0.039,5,38.869,-4.106,-0.956
162554.95475,3,0.484,0.882,9.488,4,0.006,-0.108,0.068,5,38.719,-3.788,-0.994
162554.97420,3,0.609,0.741,9.709,4,-0.115,-0.089,0.087,5,38.681,-3.844,-0.994
162554.99364,3,0.494,0.638,9.976,4,-0.157,-0.023,0.060,5,38.794,-3.750,-0.863
162555.01309,3,0.365,0.656,10.218,4,-0.126,0.028,0.029,5,38.850,-3.900,-0.956
162555.03254,3,0.387,0.630,10.257,4,-0.042,0.044,0.040,5,38.850,-3.956,-1.181
162555.05198,3,0.522,0.565,9.903,4,0.060,0.037,0.057,5,38.888,-4.106,-1.425
162555.07143,3,0.607,0.431,9.232,4,0.143,0.079,0.039,5,38.906,-4.313,-1.538
162555.09087,3,0.455,0.721,9.775,4,0.057,0.103,-0.031,5,38.738,-4.425,-1.294
162555.11032,3,0.565,1.132,10.013,4,0.003,-0.004,-0.066,5,38.794,-4.613,-1.238
162555.12977,3,0.305,0.263,9.520,4,0.032,0.018,-0.061,5,38.888,-4.425,-1.444
