timestamp,accel,accelX,accelY,accelZ,gyro,gyroX,gyroY,gyroZ,magno,magnoX,magnoY,magnoZ
162481.66420,3,-1.694,3.760,8.425
162481.68365,3,-1.387,3.518,9.113
162481.70309,3,-1.302,3.141,9.093,4,-0.194,-0.585,-0.018,5,-8.119,-28.594,13.425
162481.72254,3,-1.486,3.187,8.801,4,0.037,-0.628,-0.034,5,-8.250,-28.613,14.213
162481.74198,3,-1.565,3.386,8.290,4,0.169,-0.650,-0.062,5,-7.894,-28.238,14.531
162481.76143,3,-1.233,3.452,7.807,5,-7.800,-28.744,14.794
162481.78088,3,-1.180,3.591,8.141,4,0.163,-0.594,-0.021,5,-7.481,-28.913,14.981
162481.80032,3,-1.155,3.505,7.623,4,0.082,-0.522,0.067,5,-7.256,-29.119,15.094
162481.81977,3,-0.995,3.341,7.397,4,-0.060,-0.566,0.135,5,-7.200,-29.044,15.300
162481.83921,3,-0.937,3.323,7.600,4,-0.189,-0.632,0.185,5,-7.144,-29.119,15.488
162481.85866,3,-0.712,3.309,7.636,4,-0.235,-0.725,0.227,5,-6.994,-29.194,15.825
162481.87810,3,-0.503,3.243,7.444,4,-0.173,-0.685,0.289,5,-6.713,-29.213,15.769
162481.89755,3,-0.384,2.906,7.258
162481.91699,3,-0.248,2.878,7.149,4,-0.109,-0.564,0.394,5,-6.488,-29.494,15.825
162481.93644,3,-0.242,3.058,7.501,4,-0.485,-0.439,0.445,5,-6.319,-29.288,15.881
162481.95588,3,-0.287,2.823,7.655,4,-0.682,-0.445,0.409,5,-6.356,-29.175,15.938
162481.97533,3,-0.191,2.686,7.377,4,-0.817,-0.315,0.381,5,-6.450,-28.988,15.788
162481.99477,3,0.364,2.587,8.245,4,-0.953,0.243,0.367,5,-6.525,-29.231,15.413
162482.01422,3,0.527,1.847,10.152,5,-6.544,-29.306,15.263
162482.03367,3,0.413,1.566,10.852,4,-1.122,0.659,0.240,5,-6.619,-29.475,15.000
162482.05311,3,-0.345,1.671,10.711,4,-1.212,0.357,-0.145,5,-6.788,-29.456,14.888
162482.07256,3,-0.508,1.565,10.162,4,-0.922,0.259,-0.117,5,-7.069,-29.550,14.438
162482.09200,3,-0.340,1.363,9.491,5,-7.200,-29.888,13.931
162482.11145,3,-0.274,1.393,9.994,4,-0.581,0.108,-0.014,5,-7.425,-30.300,13.500
162482.13089,3,-0.362,1.516,9.961,4,-0.568,-0.129,-0.035,5,-7.594,-30.825,12.900
162482.15034,3,-0.182,1.490,10.108,4,-0.583,-0.136,0.003,5,-7.631,-31.031,12.488
162482.16978,3,-0.209,1.604,10.108,4,-0.677,-0.179,0.066,5,-7.519,-31.275,11.775
162482.18923,3,-0.182,1.362,10.747,5,-7.331,-31.406,11.438
162482.20867,3,-0.091,1.051,11.743,4,-0.901,-0.298,0.142,5,-7.369,-31.950,10.650
162482.22812,3,0.239,0.815,12.348,4,-1.158,-0.351,0.131,5,-7.481,-32.419,10.031
162482.24757,3,0.466,0.790,11.811,4,-0.839,-0.302,0.021,5,-7.500,-32.625,9.581
162482.26701,3,0.303,0.840,10.765,4,-0.396,-0.096,-0.089,5,-7.219,-32.700,9.000
162482.28646,3,0.053,0.903,10.022,5,-7.238,-32.700,8.475
162482.30590,3,0.004,1.093,10.469,4,-0.154,0.208,-0.017,5,-7.200,-32.981,8.138
162482.32535,3,-0.298,0.970,10.718,4,-0.280,-0.119,0.163,5,-7.406,-33.244,7.856
162482.34479,3,-0.145,0.727,10.868,4,-0.321,-0.475,0.276,5,-7.556,-33.713,7.031
162482.36424,3,0.227,0.601,10.284,4,-0.227,-0.728,0.255,5,-7.631,-33.788,6.919
162482.38368,3,0.644,0.547,9.871,4,-0.047,-0.625,0.148,5,-7.594,-33.919,6.656
162482.40313,3,0.782,0.456,9.160,4,0.141,-0.326,0.024,5,-7.631,-34.050,6.525
162482.42257,3,0.624,0.435,8.701,5,-7.669,-34.088,6.375
162482.44202,3,0.552,0.462,8.966,4,0.080,0.182,-0.071,5,-7.425,-34.256,6.450
162482.46146,3,0.230,0.451,9.044,4,-0.056,0.186,-0.067,5,-7.481,-33.994,6.225
162482.48091,3,0.273,0.273,9.211,4,-0.212,0.198,0.001,5,-7.331,-33.919,6.169
162482.50036,3,0.383,0.365,9.683,5,-7.313,-33.694,6.469
162482.51980,3,0.347,0.372,10.108,4,-0.503,0.274,0.028,5,-7.275,-33.694,6.469
162482.53925,3,0.331,0.185,10.620,4,-0.542,0.357,-0.021,5,-7.144,-33.506,6.525
162482.55869,3,0.098,0.189,11.097
162482.57814,3,-0.170,0.371,11.420,4,-0.291,0.301,-0.051,5,-7.088,-33.525,6.206
162482.59758,3,-0.135,0.407,11.353,4,-0.148,0.103,0.015,5,-7.256,-33.731,5.531
162482.61703,3,-0.017,0.462,10.869
162482.63647,3,0.075,0.480,10.444,4,-0.055,-0.050,0.109,5,-7.256,-34.031,5.363
162482.65592,3,0.110,0.503,10.285,5,-7.406,-34.144,5.156
162482.67536,3,0.062,0.527,10.172,4,-0.060,-0.020,0.090,5,-7.425,-34.369,4.800
162482.69481,3,0.081,0.411,9.888,4,0.006,-0.029,0.058,5,-7.369,-34.575,4.763
162482.71426,3,0.025,0.298,9.635,5,-7.481,-34.744,4.650
162482.73370,3,-0.028,0.226,9.697,4,0.058,-0.047,0.041,5,-7.650,-34.969,4.444
162482.75315,3,-0.032,0.138,9.592,5,-7.819,-34.894,4.725
162482.77259,3,0.127,0.062,9.373,4,0.123,-0.064,0.047,5,-8.044,-34.988,4.875
162482.79204,3,0.152,0.116,9.304,4,0.194,-0.026,0.048,5,-7.931,-34.931,4.838
162482.81148,3,0.079,0.160,9.234,4,0.184,0.026,0.030,5,-8.119,-34.950,4.856
162482.83093,3,0.145,0.154,9.317,4,-0.076,-0.032,0.037,5,-8.250,-35.063,5.250
162482.85037,3,0.213,0.079,9.483,4,-0.188,-0.076,0.031,5,-8.269,-34.988,5.194
162482.86982,3,0.289,0.020,9.606,5,-8.156,-34.688,5.306
162482.88926,3,0.329,0.093,9.715,4,-0.176,-0.044,-0.022,5,-8.025,-34.538,5.550
162482.90871,3,0.218,0.134,9.683,4,-0.105,-0.015,-0.049,5,-7.819,-34.538,5.325
162482.92815,3,0.239,0.130,9.591,5,-7.856,-34.613,5.306
162482.94760,3,0.145,0.115,9.336,4,-0.053,0.007,-0.073,5,-7.988,-34.763,5.400
162482.96705,3,0.140,0.023,9.206,4,-0.121,0.059,-0.072,5,-7.913,-34.631,5.288
162482.98649,3,0.066,-0.025,9.517,4,-0.219,0.113,-0.070,5,-7.856,-34.256,5.156
162483.00594,3,-0.024,-0.048,9.934,5,-7.894,-34.125,5.100
162483.02538,3,-0.004,-0.096,10.195,4,-0.301,0.148,-0.083,5,-8.138,-34.238,4.819
162483.04483,3,-0.081,-0.118,10.382,4,-0.345,0.228,-0.075,5,-8.363,-34.200,4.669
162483.06427,3,-0.172,-0.237,10.485,5,-8.363,-34.144,4.463
162483.08372,3,-0.154,-0.237,10.602,4,-0.212,0.146,-0.022,5,-8.213,-34.163,4.294
162483.10316,3,-0.159,-0.181,10.430,5,-8.194,-33.994,4.181
162483.12261,3,-0.006,-0.248,10.095,4,0.065,-0.073,0.004,5,-8.175,-34.144,3.788
162483.14205,3,0.097,-0.171,9.627,5,-8.100,-34.500,3.488
162483.16150,3,0.152,-0.127,9.478,4,0.136,-0.102,-0.022,5,-8.288,-34.706,3.225
162483.18095,3,0.145,-0.079,9.527,5,-8.231,-34.894,3.244
162483.20039,3,0.038,-0.090,9.450,4,0.114,-0.018,-0.050,5,-8.194,-35.025,3.169
162483.21984,3,-0.024,-0.032,9.396,5,-8.194,-35.138,3.375
162483.23928,3,0.018,-0.063,9.472,4,-0.055,0.041,-0.014,5,-8.475,-35.231,3.563
162483.25873,3,-0.033,-0.068,9.621,4,-0.128,0.044,0.002,5,-8.363,-35.494,3.450
162483.27817,3,0.005,-0.130,9.759,5,-8.194,-35.606,3.656
162483.29762,3,0.083,-0.126,9.879,4,-0.050,-0.017,0.031
162483.31706,3,0.092,-0.041,9.757,5,-8.025,-35.438,3.525
162483.33651,3,0.202,0.098,9.446,4,0.066,-0.046,0.004,5,-7.725,-35.513,3.731
162483.35595,3,0.109,0.229,9.466,4,-0.010,-0.062,-0.014,5,-7.706,-35.438,3.788
162483.37540,3,0.234,0.316,9.393,4,-0.150,-0.091,-0.017,5,-7.519,-35.269,3.956
162483.39485,3,0.305,0.327,9.704,4,-0.193,-0.007,-0.041,5,-7.538,-35.194,3.881
162483.41429,3,0.122,0.359,9.899,4,-0.190,0.056,-0.046,5,-7.350,-35.063,3.731
162483.43374,3,0.065,0.564,10.033,5,-7.444,-35.006,3.938
162483.45318,3,-0.129,0.591,10.033,4,-0.159,0.099,-0.058,5,-7.519,-34.819,3.806
162483.47263,3,-0.172,0.480,9.827,4,-0.054,0.080,-0.067,5,-7.763,-34.913,3.863
162483.49207,3,-0.188,0.436,9.511,4,0.187,0.019,-0.040,5,-7.931,-34.838,3.544
162483.51152,3,-0.243,0.472,9.332,5,-7.819,-34.950,3.600
162483.53096,3,-0.279,0.386,9.100,4,0.236,0.040,-0.029,5,-7.725,-35.044,3.338
162483.55041,3,-0.262,0.296,8.747,4,0.143,0.077,0.103,5,-7.631,-35.044,3.094
162483.56985,3,-0.296,0.374,8.779,4,0.004,0.135,0.160,5,-7.613,-34.931,3.056
162483.58930,3,-0.389,0.620,9.166,4,-0.190,0.168,0.171,5,-7.725,-34.725,2.850
162483.60875,3,-0.263,1.094,9.667,5,-7.894,-34.613,3.113
162483.62819,3,0.152,1.260,9.992,4,-0.397,0.099,0.124,5,-7.950,-34.613,3.375
162483.64764,3,0.346,1.385,10.596,4,-0.561,-0.007,0.044,5,-7.950,-34.519,3.469
162483.66708,3,0.176,1.446,11.206,4,-0.518,-0.009,-0.292,5,-8.025,-34.481,3.131
162483.68653,3,-0.123,1.043,11.225,4,-0.329,-0.036,-0.315,5,-8.025,-34.613,3.094
162483.70597,3,-0.408,0.710,10.553,5,-8.119,-34.688,3.469
162483.72542,3,-0.688,0.660,9.536,4,0.343,-0.037,-0.179,5,-8.194,-34.706,3.188
162483.74486,3,-1.040,0.713,8.614,5,-8.194,-34.875,3.056
162483.76431,3,-1.220,0.701,7.953,4,0.552,0.067,-0.112,5,-8.025,-35.119,2.850
162483.78375,3,-1.293,0.674,8.003,4,0.225,0.271,0.146,5,-7.969,-34.913,2.644
162483.80320,3,-1.398,0.747,8.578,5,-7.819,-34.838,2.606
162483.82265,3,-1.134,0.682,9.255,4,-0.065,0.225,0.275,5,-7.875,-34.950,2.888
162483.84209,3,-0.540,0.649,9.268,4,-0.258,0.061,0.424,5,-8.100,-34.969,3.019
162483.86154,3,-0.057,0.765,9.436,4,-0.320,-0.109,0.501,5,-8.306,-35.025,2.738
162483.88098,3,0.173,1.086,9.642,4,-0.036,0.122,0.141,5,-8.531,-35.063,3.094
162483.90043,3,0.028,1.591,10.455,5,-8.625,-34.894,3.356
162483.91987,3,-0.245,2.118,11.209,4,0.057,0.201,-0.130,5,-8.681,-34.969,3.319
162483.93932,3,-0.319,2.206,11.136,4,0.049,0.020,-0.250,5,-8.794,-35.175,3.150
162483.95876,3,-0.221,2.180,10.761,4,0.121,-0.305,-0.195,5,-8.850,-35.325,3.038
162483.97821,3,-0.061,2.394,10.306,4,0.597,-0.289,-0.108,5,-8.888,-35.044,3.038
162483.99765,3,-0.093,2.502,9.991,4,0.642,-0.055,-0.278,5,-8.981,-34.706,3.169
162484.01710,3,-0.472,2.653,9.909,4,0.368,0.053,-0.479
162484.03655,3,-0.563,2.264,10.188,4,0.001,-0.001,-0.506,5,-9.000,-34.688,3.281
162484.05599,3,-0.553,1.874,11.425,5,-8.794,-34.650,3.188
162484.07544,3,-1.025,1.981,12.217,4,-0.116,0.022,-0.416,5,-8.813,-34.631,3.169
162484.09488,3,-1.240,1.382,11.936,5,-8.850,-34.500,3.525
162484.11433,3,-1.100,-0.173,11.649,4,0.223,0.017,-0.332,5,-8.719,-34.275,3.750
162484.13377,3,-1.276,-1.562,12.265,4,0.593,0.248,-0.162,5,-8.756,-34.181,4.050
162484.15322,3,-1.571,-1.408,12.565,5,-8.494,-34.219,4.200
162484.17266,3,-1.980,-1.240,12.131,4,0.422,0.545,-0.325,5,-8.269,-34.144,4.106
162484.19211,3,-1.781,-2.387,11.879,4,0.185,0.631,-0.473,5,-7.913,-33.938,4.406
162484.21155,3,-1.144,-3.151,11.956,4,0.039,0.394,-0.315,5,-7.725,-34.050,4.650
162484.23100,3,-0.177,-3.240,11.793,4,0.322,-0.517,0.388,5,-7.425,-34.238,4.781
162484.25045,3,1.130,-3.680,10.495,5,-7.256,-34.144,4.781
162484.26989,3,2.091,-3.529,8.959,4,0.616,-0.745,0.629,5,-7.181,-34.181,5.100
162484.28934,3,2.261,-2.545,7.942,4,0.757,-0.767,0.621,5,-7.125,-34.200,5.213
162484.30878,3,2.137,-1.667,7.842,4,0.708,-0.658,0.423,5,-7.313,-34.125,5.494
162484.32823,3,1.896,-1.299,7.807,4,0.547,-0.511,0.159,5,-7.406,-34.200,5.981
162484.34767,3,1.483,-1.058,8.019,4,0.307,-0.382,-0.139,5,-7.763,-34.238,6.300
162484.36712,3,1.374,-0.772,8.217,4,-0.079,-0.069,-0.318,5,-7.688,-34.069,6.563
162484.38656,3,1.363,-0.559,8.633,5,-7.800,-33.694,6.956
162484.40601,3,1.290,-0.546,8.699,4,-0.089,0.028,-0.255,5,-7.631,-33.488,7.519
162484.42545,3,1.045,-0.758,8.407,4,0.054,0.319,-0.292,5,-7.500,-33.319,7.819
162484.44490,3,0.607,-0.941,8.104,5,-7.256,-33.131,8.250
162484.46435,3,-0.147,-1.120,8.174,4,0.055,0.482,-0.281,5,-7.144,-33.113,8.231
162484.48379,3,-0.794,-1.219,8.690,4,-0.061,0.467,-0.208,5,-6.975,-33.094,8.269
162484.50324,3,-0.807,-1.229,9.196,4,-0.219,0.211,-0.060,5,-6.506,-32.944,8.138
162484.52268,3,-0.527,-1.150,9.556,4,-0.334,-0.139,0.165,5,-6.656,-32.719,8.063
162484.54213,3,-0.445,-0.923,9.725,4,-0.387,-0.352,0.340,5,-6.600,-32.944,8.044
162484.56157,3,-0.317,-0.681,9.758,4,-0.143,-0.321,0.296,5,-6.825,-33.019,7.688
162484.58102,3,-0.100,-0.711,9.952,5,-6.863,-33.188,7.650
162484.60046,3,0.123,-0.972,10.078,4,0.010,-0.118,0.225,5,-7.331,-33.094,7.425
162484.61991,3,0.604,-1.119,10.060,5,-7.406,-33.131,7.369
162484.63935,3,1.010,-0.752,9.670,4,-0.002,-0.176,0.282,5,-7.538,-33.075,7.463
162484.65880,3,1.312,-0.099,9.314,4,-0.016,-0.276,0.233,5,-7.913,-33.225,7.613
162484.67825,3,1.513,0.045,9.190,4,0.051,-0.187,0.200,5,-8.025,-33.338,7.631
162484.69769,3,1.356,0.086,9.017,4,0.033,-0.132,0.142,5,-8.250,-33.188,7.519
162484.71714,3,1.378,0.129,9.197,4,-0.174,-0.188,0.185
162484.73658,3,1.885,-0.068,9.914,4,-0.430,-0.242,0.264,5,-8.194,-33.113,7.388
162484.75603,3,2.078,-0.372,11.131,5,-8.569,-33.131,7.200
162484.77547,3,1.658,-0.621,11.601,4,-0.256,0.059,0.012,5,-8.513,-33.094,7.350
162484.79492,3,1.148,-0.716,10.735,5,-8.663,-32.981,7.275
162484.81436,3,0.673,-0.569,9.446,4,0.205,0.059,-0.114,5,-8.775,-32.963,6.900
162484.83381,3,0.250,-0.251,8.224,4,0.642,-0.039,-0.195,5,-8.625,-32.700,6.656
162484.85326,3,-0.074,0.230,7.649,4,0.496,-0.309,-0.208,5,-8.419,-32.700,6.731
162484.87270,3,-0.099,0.500,7.739,5,-8.306,-32.719,6.750
162484.89215,3,-0.090,0.593,8.492,4,0.054,-0.287,-0.133,5,-8.213,-32.663,7.088
162484.91159,3,-0.005,0.408,9.542,4,-0.412,-0.122,-0.029,5,-8.081,-32.569,7.181
162484.93104,3,-0.053,0.311,10.666,4,-0.682,0.129,0.070,5,-7.950,-32.775,7.069
162484.95048,3,-0.221,0.129,11.453,4,-0.701,0.326,0.103,5,-7.819,-32.794,7.125
162484.96993,3,-0.183,0.248,11.828,4,-0.542,0.340,0.136,5,-7.613,-32.794,7.256
162484.98937,3,-0.045,0.162,11.032,4,-0.214,0.277,0.193,5,-7.538,-32.906,7.331
162485.00882,3,0.304,0.252,9.968,4,0.169,0.117,0.252,5,-7.763,-32.700,7.163
162485.02826,3,0.686,0.232,9.212,4,0.347,-0.065,0.311,5,-7.744,-32.681,7.144
162485.04771,3,0.935,0.172,8.911,4,0.217,-0.068,0.260,5,-7.894,-32.813,7.163
162485.06716,3,1.101,0.195,9.057,4,0.070,-0.015,0.199,5,-8.006,-32.756,7.181
162485.08660,3,0.994,0.054,9.306,4,-0.029,0.020,0.130,5,-8.194,-32.813,7.200
162485.10605,3,0.923,-0.020,9.423,4,-0.060,0.048,0.087,5,-8.194,-32.775,7.406
162485.12549,3,0.731,0.005,9.389,4,-0.080,0.055,0.041,5,-8.475,-32.981,7.294
162485.14494,3,0.607,0.073,9.451,5,-8.794,-33.019,7.256
162485.16438,3,0.526,0.114,9.731,4,-0.140,0.029,0.001,5,-8.888,-33.206,7.369
162485.18383,3,0.493,0.159,10.060,4,-0.208,0.014,-0.018,5,-9.131,-33.206,7.313
162485.20327,3,0.500,0.173,10.247,4,-0.152,0.008,-0.011,5,-9.300,-33.488,7.050
162485.22272,3,0.485,0.181,10.155,4,-0.025,-0.006,0.007,5,-9.300,-33.600,6.806
162485.24217,3,0.467,0.061,9.750,5,-9.375,-33.656,6.694
162485.26161,3,0.548,-0.022,9.275,4,0.132,-0.049,0.040,5,-9.506,-33.563,6.506
162485.28106,3,0.780,0.002,8.968,4,0.064,-0.086,0.061,5,-9.431,-33.300,6.619
162485.30050,3,1.004,-0.007,8.887,4,-0.064,-0.124,0.050,5,-9.413,-33.281,6.656
162485.31995,3,1.153,0.108,8.800,4,-0.205,-0.147,0.036,5,-9.488,-33.169,6.694
162485.33939,3,1.293,0.264,8.865,4,-0.366,-0.143,0.021,5,-9.356,-33.244,6.525
162485.35884,3,1.413,0.386,9.259,4,-0.525,-0.140,-0.006,5,-9.394,-32.981,6.656
162485.37828,3,1.312,0.310,10.031
162485.39773,3,1.080,0.173,10.472,4,-0.498,-0.020,-0.103,5,-9.563,-32.944,6.563
162485.41718,3,0.822,0.028,10.359,5,-9.563,-32.775,6.619
162485.43662,3,0.603,0.010,9.887,4,-0.320,0.041,-0.160,5,-9.675,-32.944,6.319
162485.45607,3,0.387,0.029,9.502,4,-0.193,0.086,-0.183,5,-9.563,-33.000,6.263
162485.47551,3,0.284,0.012,9.408,4,-0.186,0.092,-0.177,5,-9.431,-32.888,6.169
162485.49496,3,0.307,-0.050,9.491,4,-0.275,0.047,-0.123,5,-9.244,-32.906,5.756
162485.51440,3,0.338,-0.018,9.621,5,-9.131,-32.906,5.906
162485.53385,3,0.360,0.110,9.709,4,-0.250,0.008,-0.083,5,-9.038,-33.113,5.363
162485.55329,3,0.406,0.285,9.773,4,-0.194,-0.047,-0.037,5,-8.906,-33.038,5.119
162485.57274,3,0.475,0.505,9.655,4,-0.124,-0.084,0.009,5,-8.625,-33.244,4.856
162485.59218,3,0.526,0.609,9.600,4,-0.066,-0.097,0.050,5,-8.325,-33.263,5.044
162485.61163,3,0.554,0.695,9.827,4,-0.079,-0.102,0.074,5,-8.606,-33.413,4.669
162485.63108,3,0.740,0.761,10.195,4,-0.274,-0.058,0.083,5,-8.738,-33.713,4.481
162485.65052,3,1.002,0.748,10.499,4,-0.306,-0.016,0.090,5,-8.906,-33.919,4.406
162485.66997,3,1.120,0.576,10.937,4,-0.294,0.080,0.064,5,-8.850,-33.975,4.088
162485.68941,3,0.982,0.387,10.987,5,-8.925,-33.806,4.088
162485.70886,3,0.506,0.232,10.717,4,-0.182,0.192,-0.044,5,-8.831,-33.863,3.881
162485.72830,3,0.004,0.270,10.015,4,0.012,0.271,-0.178,5,-8.944,-33.638,3.769
162485.74775,3,-0.257,0.358,9.239,4,0.317,0.083,-0.158,5,-9.056,-33.431,3.413
162485.76719,3,-0.244,0.575,8.808,4,0.293,-0.041,-0.048,5,-8.794,-33.263,3.600
162485.78664,3,-0.135,0.753,8.546,4,0.193,-0.073,0.036,5,-8.700,-33.263,3.638
162485.80609,3,-0.115,1.331,8.582,5,-8.419,-33.263,3.656
162485.82553,3,0.050,1.932,9.108,4,-0.098,0.017,0.107,5,-8.381,-33.094,3.844
162485.84498,3,0.547,2.066,9.725,4,-0.110,0.011,0.150,5,-8.063,-33.356,4.106
162485.86442,3,0.954,1.998,9.896,4,0.139,-0.050,0.169,5,-8.025,-33.300,4.406
162485.88387,3,1.153,1.982,9.475,4,0.424,-0.113,0.160,5,-8.119,-33.488,4.256
162485.90331,3,1.475,2.161,9.038,5,-8.156,-33.488,4.425
162485.92276,3,1.813,2.551,8.627,4,0.627,-0.228,0.125,5,-8.419,-33.675,4.481
162485.94220,3,2.047,2.778,8.148,4,0.657,-0.422,-0.059,5,-8.438,-33.544,4.594
162485.96165,3,2.102,2.760,8.164,5,-8.644,-33.469,4.856
162485.98110,3,1.550,2.457,8.310,4,0.505,-0.286,-0.233,5,-8.794,-33.450,4.875
162486.00054,3,0.946,1.842,8.521,4,0.223,0.132,-0.428,5,-9.075,-33.263,5.100
162486.01999,3,0.164,1.382,8.643,4,0.129,0.369,-0.474,5,-9.150,-33.225,5.381
162486.03943,3,-0.126,1.172,8.671,4,0.044,0.500,-0.494,5,-8.719,-33.019,5.925
162486.05888,3,-0.543,1.191,8.984
162486.07832,3,-1.112,1.438,9.562,4,-0.232,0.494,-0.526,5,-8.550,-33.150,5.963
162486.09777,3,-1.118,1.648,10.115,4,-0.328,0.347,-0.396
162486.11721,3,-0.949,1.787,10.757,5,-8.531,-33.281,5.813
162486.13666,3,-0.788,2.180,11.528,4,-0.426,0.228,-0.288,5,-8.175,-33.263,5.888
162486.15610,3,-0.972,2.739,12.454,4,-0.513,0.195,-0.342,5,-7.950,-33.300,5.888
162486.17555,3,-1.015,3.208,14.181,4,-0.560,0.297,-0.511,5,-7.538,-33.113,5.419
162486.19500,3,-1.043,2.498,15.408,4,-0.517,0.483,-0.600,5,-7.238,-33.000,5.175
162486.21444,3,-0.527,0.281,13.314,4,-0.201,0.561,-0.563,5,-7.463,-33.169,4.688
162486.23389,3,-0.560,-2.872,10.275,4,0.785,0.039,0.061,5,-7.163,-33.113,4.538
162486.25333,3,-1.691,-3.288,11.172,5,-6.919,-33.094,4.425
162486.27278,3,-1.919,-0.675,12.978,4,-0.272,0.339,-0.306,5,-6.769,-32.963,4.444
162486.29222,3,0.162,-1.046,12.642,5,-6.863,-33.056,4.219
162486.31167,3,1.807,-2.561,11.700,4,-0.820,0.199,0.098,5,-6.844,-33.000,4.106
162486.33111,3,2.292,-3.596,11.671,4,-0.497,0.060,0.562,5,-6.806,-33.113,4.181
162486.35056,3,2.687,-4.214,12.982,4,0.271,-0.357,0.415,5,-6.994,-33.431,4.013
162486.37001,3,2.534,-3.968,12.801,5,-6.900,-33.431,4.013
162486.38945,3,2.157,-3.052,11.895,4,0.454,-0.835,-0.168,5,-6.863,-33.469,4.069
162486.40890,3,2.048,-2.401,10.184,5,-6.825,-33.263,4.200
162486.42834,3,1.502,-2.225,8.439,4,0.852,-0.602,-0.364,5,-6.675,-33.413,4.200
162486.44779,3,0.675,-1.736,7.039,4,1.143,-0.230,-0.494,5,-6.656,-33.450,4.650
162486.46723,3,0.182,-1.326,6.179,4,1.229,0.089,-0.501,5,-6.581,-33.431,4.894
162486.48668,3,0.226,-1.008,5.833,4,1.061,0.219,-0.393,5,-6.731,-33.450,5.363
162486.50612,3,0.387,-0.546,6.188,4,0.677,0.231,-0.287,5,-6.619,-33.131,5.906
162486.52557,3,0.511,-0.679,6.755,4,-0.104,0.298,-0.247,5,-6.413,-32.888,6.413
162486.54502,3,0.340,-0.844,7.163,4,-0.176,0.361,-0.243,5,-6.413,-32.700,6.638
162486.56446,3,0.042,-0.967,7.585,5,-6.394,-32.756,6.825
162486.58391,3,-0.086,-1.257,7.479,4,-0.086,0.355,-0.168,5,-6.225,-32.663,7.219
162486.60335,3,-0.201,-1.548,7.752,4,-0.011,0.169,0.004,5,-6.131,-32.606,7.219
162486.62280,3,-0.165,-1.549,8.396,4,-0.133,-0.100,0.185,5,-5.888,-32.588,7.200
162486.64224,3,0.387,-1.627,9.283,4,-0.386,-0.418,0.330,5,-5.813,-32.663,7.088
162486.66169,3,0.823,-1.510,9.960,4,-0.693,-0.556,0.332,5,-5.513,-32.606,7.050
162486.68113,3,0.673,-1.058,10.082,5,-5.588,-32.719,6.938
162486.70058,3,0.546,-0.924,10.612,4,-0.578,-0.183,0.282,5,-5.588,-32.813,6.638
162486.72003,3,0.561,-0.638,10.959,5,-5.644,-32.906,6.544
162486.73947,3,0.692,-0.346,10.708,4,-0.224,-0.032,0.168,5,-5.869,-33.019,6.338
162486.75892,3,0.890,-0.098,10.394,4,-0.031,0.064,0.101,5,-5.775,-33.131,6.113
162486.77836,3,1.026,-0.133,9.855,5,-6.019,-33.169,5.944
162486.79781,3,1.104,-0.491,9.322,4,0.122,0.241,0.183,5,-6.206,-32.906,5.794
162486.81725,3,1.022,-0.707,9.371
162486.83670,3,0.955,-0.722,9.695,4,0.091,0.286,0.221,5,-6.581,-33.056,5.513
162486.85614,3,0.823,-0.578,9.622,4,0.244,0.054,0.140,5,-6.675,-33.038,4.988
162486.87559,3,1.008,-0.637,8.998,5,-6.600,-32.981,5.119
162486.89504,3,1.087,-0.866,8.721,4,0.020,-0.186,0.223,5,-6.713,-33.019,5.100
162486.91448,3,0.965,-0.980,9.441,4,-0.266,-0.095,0.213,5,-6.713,-32.606,4.931
162486.93393,3,0.869,-0.834,10.526,5,-6.863,-32.456,4.819
162486.95337,3,0.673,-0.577,10.636,4,-0.126,-0.002,0.022,5,-7.088,-32.550,4.931
162486.97282,3,0.476,-0.197,9.689,4,0.116,-0.063,-0.038,5,-7.106,-32.719,4.613
162486.99226,3,0.369,0.025,8.981,5,-6.806,-32.925,4.819
162487.01171,3,0.403,0.163,9.014,4,-0.058,-0.069,-0.004,5,-7.013,-33.131,5.138
162487.03115,3,0.480,0.226,9.560,5,-7.406,-33.281,5.138
162487.05060,3,0.509,0.136,10.105,4,-0.295,0.066,0.082,5,-7.538,-33.150,5.044
162487.07005,3,0.576,-0.047,10.184,5,-7.631,-33.469,5.213
162487.08949,3,0.448,-0.316,9.914,4,-0.041,0.124,0.063,5,-7.500,-33.394,5.419
162487.10894,3,0.246,-0.509,9.532,4,0.035,0.105,-0.024,5,-7.556,-33.244,5.438
162487.12838,3,0.001,-0.465,9.459,4,0.004,0.069,-0.088,5,-7.369,-33.206,5.550
162487.14783,3,-0.133,-0.257,9.567,4,-0.077,0.025,-0.063,5,-7.706,-33.000,5.269
162487.16727,3,-0.106,-0.066,9.773,4,-0.135,0.002,0.033,5,-7.650,-32.813,5.194
162487.18672,3,0.111,0.085,9.826,5,-7.613,-32.850,5.231
162487.20616,3,0.278,0.242,9.906,4,-0.148,0.059,0.145,5,-7.481,-32.738,5.138
162487.22561,3,0.380,0.219,9.890,5,-7.388,-32.625,4.725
162487.24506,3,0.433,0.182,9.873,4,-0.047,0.052,0.154,5,-7.744,-32.588,4.406
162487.26450,3,0.521,0.126,9.767,4,0.004,-0.004,0.137,5,-7.650,-32.569,4.125
162487.28395,3,0.633,0.147,9.605,5,-7.725,-32.719,3.956
162487.30339,3,0.697,0.031,9.520,4,-0.047,-0.122,0.112,5,-7.763,-32.456,3.938
162487.32284,3,0.648,-0.036,9.743,5,-7.781,-32.400,4.013
162487.34228,3,0.723,-0.037,9.970,4,-0.118,-0.153,0.119,5,-7.650,-32.325,3.713
162487.36173,3,0.804,0.132,9.987,4,-0.069,-0.134,0.074,5,-7.650,-32.288,3.806
162487.38117,3,0.677,0.191,9.633,5,-7.800,-32.175,3.900
162487.40062,3,0.472,0.311,9.574,4,0.019,0.014,-0.069,5,-7.650,-32.381,3.769
162487.42007,3,0.255,0.486,9.586,5,-7.669,-32.494,3.750
162487.43951,3,0.102,0.532,9.661,4,-0.021,0.061,-0.063,5,-8.063,-32.288,3.919
162487.45896,3,0.191,0.577,9.694,4,-0.031,0.055,-0.002,5,-8.194,-32.756,4.013
162487.47840,3,0.395,0.546,9.606,4,-0.026,0.070,0.045,5,-8.138,-32.794,4.013
162487.49785,3,0.515,0.383,9.468,4,-0.023,0.101,0.067
162487.51729,3,0.563,0.189,9.432,4,-0.044,0.104,0.071,5,-8.175,-33.038,4.181
162487.53674,3,0.590,0.050,9.557,4,-0.077,0.073,0.056,5,-8.213,-33.075,4.331
162487.55618,3,0.608,-0.069,9.677,4,-0.088,0.040,0.039,5,-8.250,-33.206,4.369
162487.57563,3,0.500,-0.141,9.655,4,-0.050,0.003,0.033,5,-8.213,-33.000,4.481
162487.59508,3,0.377,-0.130,9.616,4,0.030,-0.029,0.044,5,-8.531,-33.056,4.538
162487.61452,3,0.153,-0.049,9.702,4,0.129,-0.067,0.044,5,-8.344,-33.019,4.631
162487.63397,3,0.002,0.114,9.543,4,0.241,-0.114,0.056,5,-8.138,-32.700,4.613
162487.65341,3,-0.083,0.358,9.058,4,0.259,-0.141,0.088,5,-8.325,-32.756,4.613
162487.67286,3,-0.314,0.893,8.657,4,0.082,-0.136,0.109,5,-8.381,-32.550,4.631
162487.69230,3,-0.319,1.610,8.693,4,-0.283,-0.130,0.157,5,-8.456,-32.569,4.425
162487.71175,3,0.090,1.947,9.557,4,-0.716,-0.065,0.201,5,-8.531,-32.550,4.313
162487.73119,3,0.438,1.967,10.869,4,-0.932,0.052,0.186,5,-8.831,-32.475,4.313
162487.75064,3,0.737,1.907,11.946,4,-0.779,0.113,0.208,5,-8.606,-32.325,4.219
162487.77008,3,1.195,1.874,11.966,4,-0.338,0.094,0.196,5,-8.644,-32.588,3.956
162487.78953,3,1.171,1.776,10.554,4,0.244,0.044,0.115,5,-8.850,-32.738,3.844
162487.80898,3,1.073,1.752,9.086,4,0.669,-0.007,0.047,5,-9.000,-32.794,3.731
162487.82842,3,1.227,1.821,8.229,4,0.875,-0.004,-0.044,5,-9.188,-32.700,3.619
162487.84787,3,1.111,1.748,7.964,4,0.848,0.082,-0.153,5,-9.169,-32.738,3.713
162487.86731,3,0.967,1.773,7.792,4,0.656,0.151,-0.210,5,-9.188,-32.681,3.844
162487.88676,3,0.673,2.064,8.209,4,0.394,0.238,-0.269,5,-9.300,-32.756,4.163
162487.90620,3,0.332,2.179,8.774,4,0.174,0.160,-0.280,5,-9.525,-32.663,4.369
162487.92565,3,0.231,2.207,9.454,4,0.089,0.055,-0.259,5,-9.375,-32.363,4.688
162487.94509,3,0.242,2.127,9.351,4,0.160,0.012,-0.268,5,-9.169,-32.119,4.800
162487.96454,3,0.029,2.142,8.899,4,0.299,0.110,-0.285,5,-8.925,-32.194,5.006
162487.98399,3,-0.268,2.185,8.574,5,-8.813,-32.456,5.269
162488.00343,3,-0.545,2.290,8.767,4,0.204,0.229,-0.273,5,-8.813,-32.400,5.438
162488.02288,3,-0.764,2.189,9.204,5,-8.813,-32.363,5.550
162488.04232,3,-0.996,2.063,9.833,4,-0.172,0.057,-0.114,5,-8.550,-32.269,5.494
162488.06177,3,-1.112,1.864,10.080,4,-0.228,-0.018,0.020,5,-8.288,-32.456,5.363
162488.08121,3,-0.872,1.612,10.231,5,-8.325,-32.419,5.569
162488.10066,3,-0.603,1.280,10.721,4,-0.023,0.248,0.186,5,-8.475,-32.644,5.644
162488.12010,3,-1.100,1.280,11.130,5,-8.494,-32.456,5.681
162488.13955,3,-1.284,1.038,11.504,4,-0.002,0.331,0.216,5,-8.531,-32.119,5.681
162488.15900,3,-1.010,0.918,11.171,4,-0.111,-0.175,0.534,5,-8.606,-32.250,5.606
162488.17844,3,-0.160,0.450,11.173,4,0.049,-0.181,0.597,5,-8.606,-32.194,5.569
162488.19789,3,0.100,0.215,11.166,4,0.431,0.015,0.548
162488.21733,3,0.091,-0.516,9.879,4,0.811,0.202,0.542,5,-8.831,-32.325,5.419
162488.23678,3,0.850,-1.108,8.875,4,0.955,0.407,0.221,5,-9.056,-32.363,5.494
162488.25622,3,0.802,-0.158,8.665,5,-9.356,-32.344,5.363
162488.27567,3,-0.136,-0.013,9.479,4,0.365,0.403,-0.272,5,-9.544,-32.250,5.400
162488.29511,3,-0.002,-1.506,10.226,4,-0.537,0.398,-0.445,5,-9.881,-32.325,5.419
162488.31456,3,-0.018,-2.219,10.631,4,-0.637,1.213,0.279,5,-10.144,-32.119,5.194
162488.33401,3,-0.246,-2.126,10.444,5,-10.200,-31.819,5.119
162488.35345,3,-0.357,-2.512,9.591,4,0.210,1.092,0.098,5,-10.500,-31.819,4.913
162488.37290,3,-0.585,-2.683,9.812,4,-0.139,0.510,-0.086,5,-10.631,-31.819,4.875
162488.39234,3,-0.448,-2.719,10.795,5,-11.025,-31.838,4.838
162488.41179,3,0.274,-3.163,10.645,4,-0.299,-0.452,-0.200,5,-11.231,-31.969,4.744
162488.43123,3,0.358,-3.089,9.761,4,0.106,-0.625,-0.462,5,-11.288,-31.988,4.331
162488.45068,3,-0.244,-3.080,8.768,5,-11.250,-31.781,4.013
162488.47012,3,-0.488,-2.672,8.184,4,0.153,-0.539,-0.507,5,-11.250,-32.025,4.013
162488.48957,3,-0.238,-1.709,8.349,4,-0.279,-0.299,-0.497,5,-11.231,-32.100,3.994
162488.50902,3,-0.273,-1.501,9.397,4,-0.610,-0.211,-0.556,5,-10.875,-32.400,3.900
162488.52846,3,-0.892,-1.484,10.417,5,-10.425,-32.175,3.619
162488.54791,3,-0.735,-1.476,10.861,4,-0.609,-0.309,-0.540,5,-9.806,-31.988,3.169
162488.56735,3,-0.317,-1.263,10.479,4,-0.113,-0.383,-0.091,5,-9.338,-32.025,3.019
162488.58680,3,-0.760,-0.625,9.988,4,-0.035,-0.145,0.059,5,-9.000,-32.213,2.944
162488.60624,3,-1.425,-0.148,10.485,5,-8.644,-32.588,2.813
162488.62569,3,-1.062,0.133,10.358,4,-0.093,0.017,0.179,5,-8.400,-32.719,2.644
162488.64513,3,-0.960,-0.603,10.060,4,-0.037,-0.139,0.240,5,-8.306,-33.019,2.569
162488.66458,3,-1.001,-0.990,9.457,4,0.179,-0.184,0.179,5,-8.194,-33.094,2.381
162488.68403,3,-1.050,-1.422,8.553,4,0.334,-0.070,0.142,5,-8.119,-33.488,2.606
162488.70347,3,-1.439,-1.678,8.725,4,-0.167,0.279,0.134,5,-8.063,-33.656,2.831
162488.72292,3,-1.543,-1.708,10.408,4,-0.526,0.695,0.332,5,-7.988,-33.806,2.569
162488.74236,3,-0.911,-1.731,11.155,4,-0.506,0.654,0.595,5,-7.950,-33.788,2.775
162488.76181,3,-0.442,-1.562,10.821,5,-8.006,-33.469,2.738
162488.78125,3,-0.396,-1.325,9.859,4,-0.159,0.542,0.772,5,-8.063,-33.431,2.925
162488.80070,3,-0.334,-1.160,9.341,4,0.086,0.518,0.868,5,-8.250,-33.338,2.738
162488.82014,3,-0.160,-0.881,9.283,4,0.062,0.515,0.855,5,-8.813,-33.169,2.794
162488.83959,3,0.270,-0.613,8.966,4,0.011,0.376,0.773,5,-9.394,-32.906,2.513
162488.85904,3,0.645,-0.537,8.578,4,0.173,-0.221,0.454,5,-9.919,-32.663,2.119
162488.87848,3,0.102,-0.913,8.806,4,0.019,-0.272,0.137,5,-10.556,-32.663,1.950
162488.89793,3,-0.494,-1.050,9.206,4,-0.282,-0.140,-0.109,5,-11.063,-32.419,1.781
162488.91737,3,-0.703,-1.009,9.960,4,-0.427,-0.088,-0.286,5,-11.419,-32.325,1.725
162488.93682,3,-0.922,-0.809,10.239
162488.95626,3,-1.263,-0.545,10.511,4,-0.266,-0.050,-0.310,5,-11.663,-32.325,1.369
162488.97571,3,-1.088,-0.423,10.176,5,-11.775,-32.306,1.219
162488.99515,3,-0.943,-0.521,9.694,4,-0.149,-0.012,-0.224,5,-11.513,-32.344,1.050
162489.01460,3,-1.021,-0.414,9.525,4,-0.025,-0.059,-0.129,5,-11.438,-32.456,0.900
162489.03405,3,-0.916,-0.466,9.591,4,-0.043,-0.136,-0.004,5,-11.381,-32.663,0.975
162489.05349,3,-0.864,-0.823,9.495,5,-11.100,-32.625,1.238
162489.07294,3,-0.997,-0.758,9.426,4,-0.044,-0.137,-0.038,5,-10.988,-32.644,1.106
162489.09238,3,-0.817,-0.542,9.597,4,-0.047,-0.159,-0.066,5,-10.969,-32.756,0.863
162489.11183,3,-0.683,-0.401,9.741,4,-0.028,-0.165,0.066,5,-11.025,-32.700,0.563
162489.13127,3,-0.569,-0.431,9.724,5,-11.025,-32.606,0.413
162489.15072,3,-0.532,-0.541,9.509,4,-0.047,-0.095,0.068,5,-11.100,-32.494,0.581
162489.17016,3,-0.594,-0.488,9.670,5,-11.213,-32.513,0.469
162489.18961,3,-0.539,-0.402,9.884,4,-0.099,-0.043,0.079,5,-11.044,-32.569,0.544
162489.20906,3,-0.430,-0.257,10.251,4,-0.120,-0.049,0.090,5,-11.194,-32.663,0.319
162489.22850,3,-0.328,-0.395,10.304,5,-11.044,-32.944,0.244
162489.24795,3,-0.245,-0.601,9.837,4,0.025,-0.055,-0.111,5,-10.931,-33.019,0.169
162489.26739,3,-0.267,-0.693,9.215,5,-10.838,-33.150,0.263
162489.28684,3,-0.071,-0.766,8.813,4,0.027,0.069,-0.149,5,-10.781,-33.113,0.319
162489.30628,3,0.395,-1.097,9.056,5,-10.519,-33.356,0.131
162489.32573,3,0.800,-1.305,8.385,4,-0.340,0.405,-0.148,5,-10.406,-33.413,0.169
162489.34517,3,0.989,-1.076,8.190,5,-10.369,-33.506,0.169
162489.36462,3,0.838,-0.996,8.206,4,-0.489,0.757,-0.402,5,-10.013,-33.281,0.094
162489.38407,3,0.823,-0.913,8.649,4,-0.865,0.846,-0.613,5,-10.069,-33.281,-0.075
162489.40351,3,1.565,-0.783,9.003,5,-10.031,-33.188,-0.413
162489.42296,3,2.659,-0.794,9.491,4,-0.518,0.126,-0.631,5,-9.731,-33.131,-0.694
162489.44240,3,2.459,-0.823,8.893,4,-0.139,-0.299,-0.690,5,-9.619,-33.338,-1.294
162489.46185,3,2.372,-0.065,8.475,4,-0.061,-0.376,-0.987,5,-9.394,-33.206,-1.481
162489.48129,3,2.523,0.420,8.463,5,-8.925,-33.094,-1.894
162489.50074,3,2.988,0.540,9.362,4,-0.277,-0.453,-1.142,5,-8.419,-32.756,-2.344
162489.52018,3,3.412,0.599,9.720,5,-8.063,-32.663,-2.569
162489.53963,3,3.945,0.209,9.473,4,-0.131,-0.667,-1.342,5,-7.688,-32.306,-3.019
162489.55908,3,3.756,0.230,9.343,4,0.046,-0.538,-2.135,5,-7.238,-32.588,-2.700
162489.57852,3,3.342,0.145,9.834,4,-0.139,-0.468,-2.498,5,-6.638,-32.813,-2.794
162489.59797,3,2.496,-0.038,10.663,5,-5.644,-33.319,-2.644
162489.61741,3,1.337,-0.360,11.451,4,-0.362,-0.495,-3.015
162489.63686,3,0.351,-0.899,11.769,4,-0.466,-0.660,-3.552,5,-4.688,-33.563,-2.588
162489.65630,3,-0.936,-0.986,11.621,4,-0.311,-1.058,-3.903,5,-3.263,-33.806,-2.644
162489.67575,3,-2.471,-0.646,11.992,4,-0.273,-1.183,-3.553,5,-1.444,-34.088,-2.869
162489.69519,3,-3.089,-0.214,13.139,4,-0.316,-1.181,-2.874,5,0.619,-34.331,-3.019
162489.71464,3,-3.190,-0.407,14.212,5,3.056,-34.763,-3.169
162489.73408,3,-3.165,-0.755,14.138,4,0.006,-1.230,-2.100,5,5.663,-34.444,-3.694
162489.75353,3,-3.278,-1.186,14.278,4,0.350,-1.115,-1.528,5,7.950,-33.975,-3.731
162489.77298,3,-3.430,-1.413,13.893,4,0.628,-0.953,-1.062,5,9.956,-33.244,-3.881
162489.79242,3,-3.190,-1.903,13.639,4,0.833,-1.017,-0.591,5,11.756,-32.794,-4.181
162489.81187,3,-3.115,-2.505,13.204,4,1.076,-0.616,-0.067,5,13.238,-32.438,-4.031
162489.83131,3,-3.482,-2.517,12.460,4,1.184,-0.207,0.127,5,14.081,-32.156,-3.975
162489.85076,3,-3.587,-2.466,12.269,5,14.625,-31.894,-3.994
162489.87020,3,-3.645,-2.059,10.921,4,1.175,0.306,0.436,5,14.925,-31.500,-3.694
162489.88965,3,-3.102,-2.067,10.198,4,1.192,0.927,1.091,5,15.075,-31.613,-3.113
162489.90909,3,-2.973,-2.059,9.447,4,1.170,1.100,1.256,5,15.056,-31.969,-2.663
162489.92854,3,-3.173,-1.614,9.081,5,14.756,-32.119,-2.175
162489.94799,3,-2.674,-1.376,9.329,4,1.051,0.982,1.543,5,14.606,-32.081,-1.594
162489.96743,3,-1.507,-1.506,9.573,4,1.020,0.748,1.696,5,13.931,-31.988,-1.050
162489.98688,3,-0.638,-1.629,9.258,4,1.047,0.752,1.672,5,13.238,-32.288,-0.113
162490.00632,3,-0.498,-1.367,8.917,5,12.506,-32.306,0.806
162490.02577,3,-0.510,-0.983,8.766,4,0.905,1.396,1.270,5,11.756,-32.400,1.725
162490.04521,3,0.285,-0.942,9.380,5,10.594,-32.438,2.850
162490.06466,3,1.543,-1.082,9.663,4,0.393,1.459,1.220,5,9.525,-32.569,3.713
162490.08410,3,2.468,-1.184,9.452,4,0.290,1.541,1.072,5,8.550,-32.831,4.594
162490.10355,3,2.511,-1.385,8.838,4,0.226,1.805,0.743,5,7.294,-33.169,5.344
162490.12300,3,2.004,-1.161,8.555,4,-0.013,2.038,0.479,5,6.225,-33.413,5.925
162490.14244,3,2.466,-1.523,9.198,4,-0.341,2.105,0.555,5,5.306,-33.469,6.394
162490.16189,3,3.123,-2.311,9.529,4,-0.397,1.888,0.668,5,4.238,-33.938,6.919
162490.18133,3,2.958,-2.505,9.280,4,-0.228,1.513,0.598,5,3.113,-34.200,7.294
162490.20078,3,2.599,-1.933,9.139,4,-0.180,1.073,0.594,5,2.400,-34.406,7.106
162490.22022,3,3.443,-2.727,10.385,5,1.575,-34.613,7.163
162490.23967,3,4.266,-2.829,10.736,4,-0.316,0.548,0.809,5,0.694,-34.613,7.144
162490.25911,3,4.063,-1.629,11.081,4,-0.749,-0.218,1.278,5,0.188,-34.313,6.694
162490.27856,3,3.572,-1.258,11.753,4,-0.675,0.053,1.298,5,-0.525,-34.425,6.600
162490.29801,3,2.900,-0.919,12.318
162490.31745,3,2.428,-0.285,12.373,4,-0.618,-0.185,1.065,5,-1.294,-34.669,6.244
162490.33690,3,2.355,-0.447,11.392,4,-0.510,-0.826,0.613,5,-1.988,-34.631,5.756
162490.35634,3,1.362,-1.535,10.132,5,-2.606,-34.744,5.381
162490.37579,3,-0.857,-0.588,10.715,4,-0.282,0.082,0.116,5,-3.206,-34.406,5.231
162490.39523,3,-2.900,-0.279,8.251,4,-0.148,1.018,-0.179,5,-3.638,-34.294,4.838
162490.41468,3,-3.822,-0.329,8.117,4,-0.668,0.890,0.332,5,-3.769,-34.238,4.313
162490.43412,3,-3.449,-0.250,8.736,5,-4.256,-34.669,4.238
162490.45357,3,-2.991,-0.316,9.041,4,-0.769,0.141,0.621,5,-4.575,-34.613,3.994
162490.47302,3,-2.707,-0.499,9.434,5,-4.781,-34.594,3.694
162490.49246,3,-2.356,-0.643,9.471,4,-0.558,-0.260,0.712,5,-4.931,-34.613,3.413
162490.51191,3,-1.912,-0.445,10.007,4,-0.287,-0.573,0.931,5,-4.838,-34.519,3.225
162490.53135,3,-0.937,-0.545,10.037,4,0.302,-0.989,1.252,5,-5.344,-34.931,2.813
162490.55080,3,0.132,-1.116,9.556,5,-6.000,-34.875,2.794
162490.57024,3,0.317,-0.886,9.450,4,0.664,-0.623,0.759,5,-6.488,-34.819,3.094
162490.58969,3,-0.109,-0.503,8.754,5,-6.844,-34.538,3.413
162490.60913,3,-0.328,-0.448,8.943,4,0.491,-0.344,0.558,5,-7.219,-34.425,3.638
162490.62858,3,-0.148,-0.370,9.762,4,0.023,0.153,0.602,5,-7.706,-34.256,3.919
162490.64803,3,0.163,-0.120,10.225,4,-0.335,0.456,0.560,5,-8.213,-33.900,4.069
162490.66747,3,0.242,-0.250,9.852,4,-0.321,0.289,0.372,5,-8.888,-33.731,4.238
162490.68692,3,-0.062,-0.323,9.246,4,-0.094,0.030,0.201,5,-9.188,-33.619,4.688
162490.70636,3,-0.661,-0.196,8.785,4,-0.028,0.117,0.134,5,-9.356,-33.581,4.575
162490.72581,3,-1.238,0.029,8.941,4,-0.147,0.210,0.193,5,-9.694,-33.638,4.238
162490.74525,3,-1.624,0.231,9.053,4,-0.179,0.221,0.233,5,-10.181,-33.713,3.881
162490.76470,3,-1.493,0.175,9.184,5,-10.463,-33.638,3.488
162490.78414,3,-1.238,-0.039,9.184,4,-0.006,-0.092,0.347,5,-10.575,-33.525,3.525
162490.80359,3,-1.280,0.132,9.240,5,-10.519,-33.694,3.675
162490.82304,3,-1.493,0.497,8.937,4,0.273,-0.236,0.231,5,-10.763,-33.694,3.806
162490.84248,3,-1.775,0.755,8.550,4,0.248,-0.062,0.082,5,-10.688,-33.581,3.600
162490.86193,3,-1.801,0.827,8.650,5,-10.819,-33.469,3.675
162490.88137,3,-0.907,0.110,9.502,4,0.082,0.155,-0.074,5,-11.006,-33.506,3.844
162490.90082,3,0.246,-1.008,10.350,4,-0.278,-0.307,-0.182,5,-10.931,-33.394,4.125
162490.92026,3,0.278,-1.399,10.406,4,-0.266,-0.465,-0.320,5,-11.194,-33.488,4.331
162490.93971,3,-0.615,-0.915,10.174,4,-0.201,-0.169,-0.441,5,-11.250,-33.413,4.256
162490.95915,3,-1.312,-0.491,9.768,4,-0.226,0.214,-0.389,5,-11.325,-33.450,4.200
162490.97860,3,-1.581,-0.292,9.569,4,-0.266,0.416,-0.235,5,-11.119,-33.300,3.825
162490.99805,3,-1.587,-0.425,9.428,5,-10.988,-33.300,3.825
162491.01749,3,-1.711,-0.755,9.180,4,-0.100,0.259,-0.038
162491.03694,3,-1.920,-0.887,9.148,5,-10.725,-33.375,3.544
162491.05638,3,-1.750,-0.825,9.305,4,0.150,-0.161,0.300,5,-10.613,-33.206,3.450
162491.07583,3,-0.979,-0.936,9.513,5,-10.463,-33.394,3.244
162491.09527,3,-0.375,-0.843,9.396,4,0.411,-0.421,0.613,5,-10.031,-33.488,3.225
162491.11472,3,-0.380,-0.451,9.424,5,-10.069,-33.600,3.094
162491.13416,3,-0.363,-0.283,9.386,4,0.344,-0.369,0.549,5,-10.163,-33.431,2.906
162491.15361,3,-0.384,-0.016,9.557,4,0.152,-0.294,0.470,5,-10.256,-33.356,3.131
162491.17305,3,-0.520,0.274,9.647,4,-0.047,-0.040,0.289,5,-10.669,-33.300,3.131
162491.19250,3,-0.542,0.249,9.633,4,-0.055,0.011,0.179,5,-10.969,-33.038,3.413
162491.21195,3,-0.618,0.043,9.594,5,-11.063,-32.981,3.694
162491.23139,3,-0.755,-0.162,9.514,4,-0.136,0.013,-0.080,5,-11.250,-32.700,3.863
162491.25084,3,-1.031,-0.172,9.454,5,-11.419,-32.438,3.638
162491.27028,3,-1.274,-0.110,9.586,4,-0.198,0.052,-0.167,5,-11.606,-32.325,3.694
162491.28973,3,-1.360,-0.138,9.951,4,-0.351,0.129,-0.073,5,-11.531,-32.456,3.806
162491.30917,3,-1.183,-0.092,10.266,5,-11.606,-32.625,3.713
162491.32862,3,-1.012,-0.014,10.214,4,-0.300,0.064,0.048,5,-11.475,-32.756,3.563
162491.34806,3,-0.925,0.090,10.016,4,-0.141,-0.034,0.171,5,-11.494,-32.775,3.488
162491.36751,3,-0.968,0.220,9.861,4,0.043,-0.206,0.269,5,-11.569,-32.831,3.300
162491.38696,3,-0.989,0.325,9.866,5,-11.531,-32.869,3.038
162491.40640,3,-0.912,0.486,9.903,4,-0.044,-0.099,0.203,5,-11.606,-33.000,2.963
162491.42585,3,-0.798,0.573,9.870,4,-0.081,0.042,0.158,5,-11.700,-32.869,2.963
162491.44529,3,-0.777,0.541,9.789,4,-0.076,0.135,0.077,5,-11.906,-32.663,2.738
162491.46474,3,-0.747,0.502,9.780,4,-0.067,0.117,-0.022,5,-11.963,-32.588,2.719
162491.48418,3,-0.541,0.442,9.955,4,-0.087,0.006,-0.132,5,-12.056,-32.344,2.663
162491.50363,3,-0.388,0.295,10.127,4,-0.107,-0.081,-0.226,5,-11.981,-32.400,2.475
162491.52307,3,-0.319,0.223,10.089,5,-11.775,-32.250,2.306
162491.54252,3,-0.437,0.371,10.024,4,-0.143,0.080,-0.286,5,-12.000,-32.494,2.156
162491.56197,3,-0.645,0.802,9.937,4,-0.143,0.227,-0.275,5,-12.094,-32.363,2.381
162491.58141,3,-0.772,1.201,9.855,4,-0.100,0.297,-0.248,5,-11.850,-32.494,1.819
162491.60086,3,-0.753,1.397,9.701,5,-11.775,-32.419,1.894
162491.62030,3,-0.668,1.549,9.616,4,-0.048,0.260,-0.206,5,-11.644,-32.250,1.650
162491.63975,3,-0.432,1.651,9.655,4,-0.019,0.157,-0.162,5,-11.381,-32.325,1.594
162491.65919,3,-0.261,1.750,9.639,4,0.033,-0.063,-0.121,5,-11.475,-32.344,1.706
162491.67864,3,-0.346,1.867,9.695,5,-11.269,-32.569,1.800
162491.69808,3,-0.407,2.026,9.918,4,0.058,-0.071,-0.098,5,-11.063,-32.438,1.913
162491.71753,3,-0.260,2.235,10.101,4,0.113,-0.151,-0.044,5,-10.688,-32.775,1.856
162491.73698,3,-0.118,2.261,9.924,4,0.248,-0.136,-0.045
162491.75642,3,-0.152,2.185,9.520,4,0.356,-0.094,-0.091,5,-10.481,-32.925,2.344
162491.77587,3,-0.319,2.338,9.312,5,-10.406,-33.094,2.363
162491.79531,3,-0.438,2.387,9.304,4,0.332,-0.141,-0.155,5,-10.294,-33.356,2.719
162491.81476,3,-0.401,2.101,9.380,4,0.194,-0.122,-0.301,5,-10.256,-33.300,2.869
162491.83420,3,-0.427,1.991,9.433,4,0.183,-0.141,-0.366,5,-9.975,-33.206,2.944
162491.85365,3,-0.475,2.022,9.499,4,0.225,-0.148,-0.364,5,-10.144,-33.113,2.794
162491.87309,3,-0.220,1.792,9.538,4,0.312,-0.188,-0.291,5,-9.956,-33.300,3.169
162491.89254,3,0.103,1.675,9.463,5,-9.975,-32.944,3.206
162491.91199,3,0.314,1.605,9.173,4,0.424,-0.294,-0.244,5,-9.788,-32.625,3.338
162491.93143,3,0.239,1.579,8.590,4,0.533,-0.375,-0.261,5,-9.506,-32.456,3.656
162491.95088,3,-0.140,1.721,8.208,4,0.440,-0.181,-0.436,5,-9.300,-32.588,3.863
162491.97032,3,-0.427,1.860,8.421,5,-8.963,-32.644,3.900
162491.98977,3,-0.375,1.766,8.774,4,0.223,-0.086,-0.486,5,-8.775,-32.681,4.294
162492.00921,3,-0.415,1.739,8.779,4,0.177,-0.125,-0.450,5,-8.400,-32.550,4.725
162492.02866,3,-0.594,1.650,8.432,4,0.303,-0.140,-0.417,5,-8.269,-32.138,4.725
162492.04810,3,-0.886,1.512,7.947,4,0.343,-0.109,-0.444,5,-8.250,-32.213,4.800
162492.06755,3,-1.020,1.428,7.941,5,-8.063,-32.231,4.950
162492.08699,3,-0.992,1.196,8.166,4,0.043,-0.192,-0.481,5,-7.894,-32.325,5.006
162492.10644,3,-1.044,0.897,8.586,4,-0.077,-0.241,-0.450,5,-7.650,-31.913,5.400
162492.12589,3,-0.995,0.456,8.815,4,-0.084,-0.294,-0.403,5,-7.669,-31.650,5.850
162492.14533,3,-0.833,0.339,9.191,4,-0.113,-0.403,-0.351,5,-7.313,-31.388,5.794
162492.16478,3,-0.837,0.515,9.566,5,-7.219,-31.519,5.756
162492.18422,3,-0.849,0.536,10.127,4,-0.221,-0.498,-0.295,5,-6.975,-31.538,5.925
162492.20367,3,-0.805,0.366,10.323,4,-0.343,-0.421,-0.226,5,-6.506,-31.800,6.056
162492.22311,3,-0.863,0.245,10.225,4,-0.420,-0.108,-0.146,5,-6.356,-32.119,5.888
162492.24256,3,-0.995,0.293,10.206,4,-0.399,0.516,0.187,5,-6.075,-32.381,5.831
162492.26200,3,-0.832,-0.072,10.535,4,-0.304,0.282,0.363,5,-6.019,-32.738,5.213
162492.28145,3,0.032,-1.037,11.014,4,-0.157,-0.279,0.442,5,-5.925,-33.263,4.800
162492.30090,3,0.863,-2.197,11.253,5,-6.150,-33.506,4.556
162492.32034,3,1.174,-2.994,11.670,4,-0.015,-0.650,0.448,5,-6.206,-33.769,4.631
162492.33979,3,0.882,-2.799,11.944,4,-0.070,-0.557,0.568,5,-6.338,-34.050,4.388
162492.35923,3,0.358,-2.209,12.498,4,-0.525,-0.473,1.074,5,-6.656,-33.881,4.350
162492.37868,3,0.438,-2.350,12.881,4,-0.506,-0.781,1.107,5,-7.163,-33.488,4.481
162492.39812,3,1.245,-3.083,12.909
162492.41757,3,1.755,-3.560,12.752,4,-0.282,-1.156,0.810,5,-7.594,-33.450,4.500
162492.43701,3,1.702,-3.514,12.634,4,-0.186,-0.733,0.706,5,-7.894,-33.375,4.725
162492.45646,3,1.443,-3.298,12.061,5,-8.400,-33.056,4.781
162492.47591,3,1.199,-2.993,11.247,4,-0.128,-0.201,0.582,5,-8.756,-33.000,4.706
162492.49535,3,0.738,-2.611,10.706,4,-0.180,0.288,0.184,5,-9.394,-32.813,4.631
162492.51480,3,0.384,-2.377,10.478,5,-9.806,-32.719,4.706
162492.53424,3,0.232,-2.260,10.236,4,-0.201,0.295,0.021,5,-10.125,-32.719,4.463
162492.55369,3,0.139,-2.042,9.864,4,0.017,0.214,-0.016,5,-10.238,-32.775,4.331
162492.57313,3,0.128,-1.799,9.491,4,0.140,0.245,0.016,5,-10.481,-32.625,4.181
162492.59258,3,0.111,-1.437,9.318,5,-10.894,-32.719,3.975
162492.61202,3,0.039,-0.923,9.464,4,0.138,0.343,-0.001,5,-10.781,-32.644,4.031
162492.63147,3,0.250,-0.863,9.612,4,0.038,0.443,-0.091,5,-10.969,-32.644,4.088
162492.65092,3,0.510,-1.079,9.716,4,-0.041,0.442,-0.182,5,-10.894,-32.438,3.975
162492.67036,3,0.715,-1.183,9.758,4,-0.034,0.349,-0.202,5,-10.950,-32.213,3.581
162492.68981,3,1.092,-1.296,10.036,4,0.215,0.160,-0.027,5,-11.100,-31.988,3.488
162492.70925,3,1.059,-1.247,10.109,4,0.335,-0.031,-0.054,5,-10.988,-32.194,3.375
162492.72870,3,0.383,-0.693,10.071,4,0.349,-0.153,-0.171,5,-10.931,-32.175,3.375
162492.74814,3,0.016,-0.207,9.950,4,0.281,-0.121,-0.206,5,-11.025,-31.950,3.263
162492.76759,3,0.209,-0.005,9.692,5,-11.194,-32.044,3.431
162492.78703,3,0.609,-0.042,9.544,4,0.231,0.468,-0.116,5,-11.119,-31.969,3.581
162492.80648,3,0.915,-0.221,9.424,5,-10.838,-32.138,3.713
162492.82593,3,0.717,-0.048,9.263,4,0.240,0.814,-0.174,5,-10.688,-32.344,4.069
162492.84537,3,0.292,0.442,8.792,4,0.219,0.888,-0.227,5,-10.406,-32.494,4.331
162492.86482,3,-0.160,0.782,8.214,5,-10.406,-32.531,4.444
162492.88426,3,-0.794,0.716,7.572,4,0.182,0.775,-0.243,5,-10.406,-32.531,4.575
162492.90371,3,0.214,0.344,8.558,4,-0.087,0.134,-0.007,5,-10.238,-32.700,4.744
162492.92315,3,1.051,0.025,9.506,5,-9.956,-32.719,4.669
162492.94260,3,0.624,-0.610,9.399,4,-0.107,0.316,0.375,5,-9.863,-32.869,4.463
162492.96204,3,0.124,-0.677,8.263,4,0.214,0.461,0.262,5,-10.106,-32.700,4.238
162492.98149,3,-0.364,-0.573,7.836,5,-10.388,-32.700,4.163
162493.00093,3,-0.096,-0.187,7.135,4,0.107,0.580,-0.102,5,-10.688,-32.775,4.144
162493.02038,3,-0.254,-0.447,8.272,4,-0.208,0.594,-0.234,5,-10.725,-32.606,4.050
162493.03983,3,-0.342,0.182,9.721,4,-0.662,0.958,-0.188,5,-10.838,-32.813,3.788
162493.05927,3,-0.499,0.218,9.781,4,-0.225,0.220,-0.338,5,-11.025,-32.775,3.506
162493.07872,3,-0.856,0.106,9.123,5,-11.213,-32.775,3.169
162493.09816,3,-1.080,0.249,8.677,4,0.255,-0.340,-0.393,5,-11.194,-32.756,3.150
162493.11761,3,-0.783,0.299,7.957,4,0.321,-0.527,-0.321,5,-10.875,-32.831,3.188
162493.13705,3,-0.850,-0.287,8.906,4,0.171,-0.535,-0.154
162493.15650,3,-1.486,-0.010,8.908,4,0.149,-0.016,-0.026,5,-10.725,-32.756,3.113
162493.17594,3,-1.488,-0.157,8.806,5,-10.463,-32.869,2.944
162493.19539,3,-1.086,-0.181,9.241,4,0.055,-0.038,0.127,5,-10.538,-32.963,2.981
162493.21484,3,-0.990,-0.144,10.078,4,-0.087,-0.220,0.234,5,-10.631,-32.738,2.981
162493.23428,3,-1.120,-0.221,10.560,4,-0.204,-0.309,0.277,5,-10.313,-32.756,2.981
162493.25373,3,-0.952,-0.026,10.641,5,-10.256,-32.775,3.244
162493.27317,3,-0.547,0.396,10.178,4,-0.223,0.058,0.140,5,-10.200,-32.700,3.188
162493.29262,3,-0.279,0.499,9.728,4,-0.201,0.043,0.015,5,-10.331,-32.906,2.925
162493.31206,3,-0.315,0.689,9.664,4,-0.224,-0.095,-0.091,5,-10.219,-32.888,2.944
162493.33151,3,-0.118,0.688,9.568,5,-10.481,-32.850,2.850
162493.35095,3,0.159,0.561,9.564,4,-0.274,-0.244,-0.138,5,-10.331,-32.850,2.681
162493.37040,3,0.117,0.413,9.423,4,-0.354,-0.196,-0.224,5,-10.069,-32.981,2.663
162493.38985,3,0.043,0.319,9.511,4,-0.341,0.055,-0.247,5,-10.013,-33.019,2.775
162493.40929,3,-0.492,0.326,9.444,5,-9.938,-33.150,2.588
162493.42874,3,-0.844,0.418,9.393,4,-0.218,0.135,-0.185,5,-9.956,-33.394,2.419
162493.44818,3,-0.973,0.354,9.503,5,-9.975,-33.319,2.475
162493.46763,3,-0.907,0.380,9.592,4,-0.228,0.100,-0.109,5,-9.900,-33.394,2.100
162493.48707,3,-0.791,0.345,9.566,4,-0.115,-0.002,0.012,5,-9.750,-33.506,2.044
162493.50652,3,-0.860,0.368,9.625,5,-9.863,-33.806,2.194
162493.52596,3,-0.954,0.424,9.767,4,-0.030,-0.142,0.125,5,-9.956,-33.825,2.156
162493.54541,3,-0.923,0.454,9.968,5,-10.050,-33.806,1.969
162493.56485,3,-0.782,0.470,9.956,4,0.072,-0.168,0.072,5,-10.106,-33.675,1.744
162493.58430,3,-0.646,0.545,9.840,4,0.063,-0.131,0.032,5,-10.256,-33.488,1.575
162493.60375,3,-0.527,0.725,9.901,4,0.007,-0.120,-0.001,5,-10.406,-33.319,1.369
162493.62319,3,-0.436,0.937,9.846,4,-0.058,-0.154,-0.047,5,-10.406,-33.375,1.575
162493.64264,3,-0.505,1.256,9.912,4,-0.122,-0.202,-0.088,5,-10.388,-33.131,1.631
162493.66208,3,-0.418,1.683,10.204,5,-10.256,-32.850,1.444
162493.68153,3,0.213,1.801,10.298,4,-0.062,-0.371,-0.036,5,-10.088,-32.663,1.181
162493.70097,3,0.731,1.345,9.730,5,-9.994,-32.756,1.181
162493.72042,3,0.571,0.881,8.841,4,0.401,0.000,-0.183,5,-9.900,-32.831,1.406
162493.73986,3,-0.231,0.748,8.147,5,-9.544,-32.963,1.594
162493.75931,3,-0.741,0.995,8.104,4,0.414,0.174,-0.362,5,-9.113,-32.944,1.744
162493.77876,3,-0.563,1.411,8.456,4,0.185,0.148,-0.419,5,-8.981,-32.869,1.781
162493.79820,3,-0.032,1.539,9.136,4,-0.196,-0.125,-0.219
162493.81765,3,0.260,1.507,9.322,5,-8.869,-33.075,1.725
162493.83709,3,-0.219,1.961,9.317,4,0.078,-0.300,-0.289,5,-8.850,-33.281,1.931
162493.85654,3,-0.480,2.332,9.523,5,-8.644,-33.450,2.250
162493.87598,3,-0.380,2.207,9.768,4,0.274,-0.337,-0.214,5,-8.213,-33.656,2.381
162493.89543,3,-0.317,2.015,9.763,4,0.374,-0.285,-0.244,5,-8.231,-33.806,2.250
162493.91487,3,-0.413,2.119,10.416,5,-8.231,-33.975,2.400
162493.93432,3,-0.420,2.362,11.018,4,0.444,0.006,-0.300,5,-8.156,-34.013,2.513
162493.95377,3,-0.517,2.465,11.305,5,-7.894,-34.238,2.588
162493.97321,3,-0.595,2.569,11.585,4,0.278,0.103,-0.239,5,-7.500,-34.238,3.150
162493.99266,3,0.159,2.177,11.558,4,0.085,0.296,-0.127,5,-7.275,-34.050,3.113
162494.01210,3,0.028,1.197,12.048,4,0.078,0.402,-0.101,5,-7.088,-34.294,3.225
162494.03155,3,-1.192,0.110,12.956,4,0.082,0.491,-0.135,5,-7.088,-33.994,3.413
162494.05099,3,-1.579,-1.780,12.934,4,0.168,0.614,0.187,5,-6.919,-33.881,3.731
162494.07044,3,-1.648,-3.568,12.193,5,-6.825,-33.750,3.900
162494.08988,3,-2.093,-3.850,10.864,4,0.008,1.348,-0.878,5,-6.825,-33.825,3.994
162494.10933,3,-2.161,-3.727,10.444,5,-6.863,-33.581,4.069
162494.12878,3,-1.918,-3.593,11.468,4,-0.612,1.338,-1.215,5,-6.863,-33.488,3.975
162494.14822,3,-1.399,-3.995,12.607,4,-0.726,0.182,-0.795,5,-6.694,-33.656,4.013
162494.16767,3,-0.823,-3.780,12.059,4,0.080,-0.420,-0.303,5,-6.694,-33.300,3.881
162494.18711,3,-0.245,-2.683,10.611,5,-6.488,-33.488,3.525
162494.20656,3,0.405,-2.133,9.136,4,1.306,-0.756,0.954,5,-6.038,-33.675,3.300
162494.22600,3,0.856,-1.286,8.412,5,-5.644,-33.713,3.169
162494.24545,3,1.110,-0.885,8.105,4,1.159,-0.807,1.056,5,-5.475,-33.675,3.263
162494.26489,3,1.335,-1.040,8.237,4,0.739,-0.839,0.841,5,-5.513,-33.919,3.581
162494.28434,3,1.486,-1.118,8.127,4,0.185,-0.503,0.265,5,-5.494,-34.069,3.619
162494.30378,3,1.432,-0.884,7.881,5,-5.550,-33.994,3.975
162494.32323,3,1.076,-0.899,8.009,4,0.051,-0.227,0.027,5,-5.494,-34.050,4.275
162494.34268,3,0.510,-0.796,8.703,4,-0.073,0.070,-0.091,5,-5.681,-33.919,4.838
162494.36212,3,0.276,-0.795,9.027,4,-0.210,0.178,-0.225,5,-5.944,-33.619,5.231
162494.38157,3,-0.054,-0.976,8.952,4,-0.237,0.058,-0.295,5,-6.056,-33.300,5.663
162494.40101,3,-0.334,-0.691,8.705,4,-0.086,-0.092,-0.212,5,-6.000,-33.431,5.888
162494.42046,3,-0.342,-0.284,8.221,4,0.260,-0.298,0.104,5,-5.569,-33.169,5.813
162494.43990,3,-0.006,-0.492,7.929,4,0.192,-0.290,0.174,5,-5.625,-32.963,5.775
162494.45935,3,-0.109,-1.062,7.818,5,-5.756,-32.756,5.569
162494.47879,3,-0.597,-1.093,8.501,4,-0.107,-0.147,0.069,5,-5.831,-32.906,5.794
162494.49824,3,-0.526,-1.128,9.077,4,-0.314,-0.188,0.117,5,-5.850,-32.925,6.019
162494.51769,3,-0.054,-1.315,9.724
162494.53713,3,0.278,-1.092,10.479,4,-0.472,-0.091,0.343,5,-5.850,-32.888,6.150
162494.55658,3,0.718,-1.097,10.335,4,-0.230,-0.084,0.373,5,-5.888,-33.038,6.169
162494.57602,3,1.046,-0.952,9.916,4,-0.118,-0.066,0.247,5,-6.000,-33.113,6.094
162494.59547,3,0.840,-0.524,10.171,4,-0.182,-0.089,0.080,5,-6.244,-33.394,5.869
162494.61491,3,0.368,-0.631,10.962,4,-0.199,-0.232,-0.010,5,-6.263,-33.413,6.056
162494.63436,3,0.214,-0.876,10.956,4,0.001,-0.326,-0.145,5,-6.056,-33.544,6.056
162494.65380,3,0.104,-0.943,9.927,4,0.235,-0.215,-0.277,5,-6.150,-33.319,5.569
162494.67325,3,-0.270,-0.719,8.857,5,-6.038,-33.450,5.156
162494.69270,3,-0.534,-0.447,8.543,4,0.090,0.064,-0.094,5,-5.888,-33.563,4.838
162494.71214,3,-0.706,-0.122,8.865,4,-0.045,0.014,0.026,5,-6.019,-33.731,4.463
162494.73159,3,-0.533,-0.166,9.076,4,-0.102,-0.055,0.156,5,-6.094,-33.619,4.350
162494.75103,3,-0.301,-0.383,8.989,5,-6.131,-33.394,4.350
162494.77048,3,-0.177,-0.542,8.705,4,-0.061,-0.040,0.256,5,-6.319,-33.525,4.238
162494.78992,3,-0.095,-0.612,8.564,4,-0.132,0.060,0.256,5,-6.319,-33.638,4.144
162494.80937,3,-0.072,-0.616,8.855,5,-6.113,-33.750,4.275
162494.82881,3,-0.043,-0.621,9.525,4,-0.517,-0.002,0.258,5,-6.281,-33.675,4.406
162494.84826,3,0.050,-0.705,10.456,4,-0.572,-0.082,0.291,5,-6.769,-33.694,4.369
162494.86770,3,0.289,-0.648,10.894,4,-0.415,-0.148,0.316,5,-6.844,-33.731,4.425
162494.88715,3,0.549,-0.541,10.455,5,-6.919,-33.750,4.219
162494.90660,3,0.636,-0.451,9.829,4,-0.179,-0.165,0.300,5,-7.144,-33.994,4.163
162494.92604,3,0.630,-0.388,9.496,4,-0.078,-0.071,0.191,5,-7.125,-34.050,3.881
162494.94549,3,0.552,-0.226,9.525,5,-7.350,-34.088,3.581
162494.96493,3,0.624,-0.043,9.655,4,-0.114,-0.027,0.163,5,-7.538,-34.388,3.431
162494.98438,3,0.750,0.026,9.599,5,-7.613,-34.331,2.813
162495.00382,3,0.689,-0.001,9.257,4,-0.058,0.007,0.149,5,-7.594,-34.388,2.794
162495.02327,3,0.494,0.026,9.126,4,-0.025,0.023,0.094,5,-7.913,-34.219,2.625
162495.04271,3,0.302,0.159,9.384,4,-0.108,0.018,0.020,5,-8.025,-34.350,2.644
162495.06216,3,0.292,0.254,9.769,4,-0.225,-0.008,-0.009,5,-8.138,-34.331,2.531
162495.08161,3,0.460,0.199,10.005,4,-0.353,0.047,0.059,5,-8.138,-34.238,2.400
162495.10105,3,0.481,0.120,10.033,5,-8.063,-33.900,2.475
162495.12050,3,0.230,0.095,9.893,4,-0.276,0.168,0.018,5,-8.138,-33.769,2.306
162495.13994,3,0.022,0.189,9.842,4,-0.187,0.179,-0.055,5,-8.306,-33.788,2.625
162495.15939,3,0.074,0.281,10.031,4,-0.212,0.026,0.019,5,-8.306,-33.881,2.419
162495.17883,3,0.193,0.413,10.297,4,-0.260,-0.077,0.086,5,-8.306,-33.975,2.325
162495.19828,3,0.162,0.433,10.582
162495.21772,3,0.116,0.344,10.529,4,-0.235,-0.108,0.114,5,-8.288,-33.638,1.988
162495.23717,3,0.188,0.238,9.875,4,-0.069,-0.094,0.116
162495.25662,3,0.393,0.287,9.094,4,0.138,-0.048,0.103,5,-8.344,-33.469,1.856
162495.27606,3,0.412,0.642,8.913,4,0.240,0.032,0.064,5,-8.438,-33.656,1.894
162495.29551,3,0.347,1.030,9.569,4,-0.105,0.113,-0.078,5,-8.700,-33.638,1.894
162495.31495,3,0.225,1.268,10.149,5,-8.588,-33.675,1.856
162495.33440,3,0.392,1.233,10.205,4,-0.106,-0.053,-0.098,5,-8.700,-33.619,1.744
162495.35384,3,0.447,1.000,9.660,4,0.052,-0.016,-0.167,5,-8.494,-33.694,1.650
162495.37329,3,0.194,0.996,9.203,5,-8.363,-33.975,1.688
162495.39273,3,-0.092,1.131,9.200,4,0.127,0.122,-0.237,5,-8.194,-34.050,1.631
162495.41218,3,-0.075,1.307,9.338,4,0.124,0.076,-0.139,5,-8.156,-34.163,1.556
162495.43162,3,0.258,1.351,9.268,5,-8.231,-34.369,1.538
162495.45107,3,0.467,1.320,9.258,4,0.174,-0.025,-0.128,5,-8.138,-34.331,1.594
162495.47052,3,0.328,1.378,9.083,5,-8.231,-34.369,1.500
162495.48996,3,-0.031,1.498,8.834,4,0.397,-0.126,-0.271,5,-8.156,-34.425,1.519
162495.50941,3,-0.366,1.549,8.704,5,-8.063,-34.481,1.631
162495.52885,3,-0.796,1.678,9.015,4,0.337,-0.182,-0.279,5,-8.006,-34.500,1.894
162495.54830,3,-0.918,2.059,9.552,4,0.172,-0.264,-0.292,5,-7.931,-34.519,2.288
162495.56774,3,-0.583,1.549,10.259,5,-7.913,-34.838,2.663
162495.58719,3,-0.456,0.930,10.531,4,0.106,-0.377,-0.209,5,-7.744,-34.631,2.944
162495.60663,3,-0.465,0.893,11.005,4,0.172,-0.386,-0.071,5,-7.463,-34.594,3.188
162495.62608,3,-0.384,1.259,11.432,4,0.092,-0.193,-0.022,5,-7.219,-34.744,3.450
162495.64553,3,-0.002,1.806,11.766,4,-0.052,-0.044,0.039,5,-6.938,-34.763,3.788
162495.66497,3,0.455,2.115,11.625,5,-6.975,-34.575,3.994
162495.68442,3,0.804,2.091,11.632,4,-0.048,0.090,0.091,5,-7.069,-34.294,4.125
162495.70386,3,1.894,1.305,11.683,4,0.073,-0.033,-0.095,5,-6.994,-34.294,4.013
162495.72331,3,2.164,-0.130,10.788,5,-6.844,-34.200,4.069
162495.74275,3,1.306,-0.858,12.015,4,-0.177,0.139,-1.071,5,-6.694,-34.406,3.938
162495.76220,3,-0.105,-0.762,12.802,4,-0.072,0.324,-1.327,5,-6.413,-34.463,3.806
162495.78164,3,-0.640,-1.962,12.167,5,-6.113,-34.256,3.806
162495.80109,3,-1.046,-2.305,11.785,4,-0.058,0.755,-0.851,5,-5.719,-34.331,3.806
162495.82054,3,-0.894,-1.907,11.343,5,-5.231,-34.406,3.675
162495.83998,3,-0.417,-1.718,10.478,4,0.212,0.449,-0.469,5,-4.575,-34.706,3.375
162495.85943,3,0.215,-1.732,9.753,4,0.452,0.203,-0.181,5,-4.294,-34.819,3.356
162495.87887,3,0.783,-1.853,9.525,5,-3.788,-34.725,3.263
162495.89832,3,1.336,-2.070,9.214,4,0.679,-0.062,0.168
162495.91776,3,1.679,-2.505,8.640,4,0.920,-0.296,0.435,5,-3.113,-34.631,3.488
162495.93721,3,1.562,-2.581,7.847,4,1.104,-0.348,0.484
162495.95665,3,1.167,-2.187,7.532,4,1.073,-0.282,0.320,5,-2.963,-34.706,3.863
162495.97610,3,1.113,-1.682,7.733,4,0.816,-0.158,0.193,5,-3.113,-34.388,4.238
162495.99554,3,1.438,-1.398,8.048,4,0.122,0.045,0.295,5,-3.075,-34.538,4.706
162496.01499,3,1.567,-1.225,8.244,5,-3.263,-34.575,5.400
162496.03444,3,1.343,-0.907,7.932,4,-0.348,0.095,0.184,5,-3.300,-34.463,5.944
162496.05388,3,1.275,-1.149,7.867,4,-0.662,0.097,0.136,5,-3.563,-34.369,6.356
162496.07333,3,0.996,-1.184,8.433,4,-0.822,0.138,0.038,5,-3.900,-34.163,6.900
162496.09277,3,0.601,-1.171,8.946,5,-4.050,-34.219,7.088
162496.11222,3,0.297,-1.166,9.531,4,-0.571,0.149,-0.052,5,-4.313,-34.181,7.050
162496.13166,3,0.201,-1.201,10.015,5,-4.181,-34.575,6.863
162496.15111,3,-0.044,-1.266,9.974,4,-0.030,0.071,0.044,5,-4.256,-34.594,6.694
162496.17055,3,-0.418,-1.171,9.981,4,0.211,0.074,0.147,5,-4.163,-34.631,6.338
162496.19000,3,-0.622,-0.909,9.940,5,-4.406,-34.781,6.019
162496.20945,3,-0.365,-0.689,9.763,4,0.240,0.081,0.369,5,-4.350,-34.913,5.906
162496.22889,3,0.085,-0.792,9.593,5,-4.463,-35.025,5.456
162496.24834,3,0.121,-0.828,9.679,4,-0.048,0.260,0.095,5,-4.556,-35.044,5.438
162496.26778,3,0.049,-0.939,9.531,5,-4.613,-35.325,5.344
162496.28723,3,0.111,-0.982,9.199,4,0.036,0.349,0.065,5,-4.988,-35.213,5.644
162496.30667,3,0.197,-0.832,9.464,4,-0.032,0.316,0.127,5,-5.100,-35.138,5.569
162496.32612,3,0.307,-0.522,9.904,4,-0.228,0.214,0.156,5,-5.288,-34.875,5.475
162496.34556,3,0.622,-0.579,10.015,4,-0.189,-0.213,0.236,5,-5.138,-34.688,5.456
162496.36501,3,0.715,-0.581,9.668,4,-0.023,-0.275,0.255,5,-5.213,-34.688,5.419
162496.38446,3,0.563,-0.553,9.392,4,-0.013,-0.290,0.239,5,-5.213,-34.650,5.569
162496.40390,3,0.436,-0.746,9.647,5,-5.344,-34.650,5.475
162496.42335,3,0.328,-0.754,9.773,4,-0.050,-0.249,0.220,5,-5.400,-34.331,5.475
162496.44279,3,0.255,-0.733,9.580,4,-0.096,-0.028,0.155,5,-5.400,-34.331,5.081
162496.46224,3,0.214,-0.845,9.319,4,-0.137,0.021,0.127,5,-5.700,-34.500,5.006
162496.48168,3,0.074,-0.792,9.375,4,-0.224,-0.035,0.092,5,-6.019,-34.725,5.175
162496.50113,3,0.026,-0.662,9.834,4,-0.311,-0.120,0.083,5,-6.113,-34.819,4.988
162496.52057,3,0.096,-0.481,10.133,4,-0.292,-0.191,0.088,5,-6.450,-34.556,4.819
162496.54002,3,0.287,-0.231,10.137,4,-0.181,-0.209,0.120,5,-6.563,-34.538,4.744
162496.55947,3,0.439,-0.017,9.821,4,-0.047,-0.166,0.174,5,-6.769,-34.538,4.744
162496.57891,3,0.496,0.214,9.444,5,-6.881,-34.388,4.725
162496.59836,3,0.421,0.270,9.371,4,0.008,-0.105,0.188,5,-6.975,-34.200,4.631
162496.61780,3,0.263,0.166,9.761,4,-0.154,-0.007,0.089
162496.63725,3,0.080,0.071,10.043,4,-0.197,0.009,0.030,5,-6.919,-33.975,4.631
162496.65669,3,-0.033,0.063,10.085,5,-6.881,-33.825,4.369
162496.67614,3,0.100,0.028,9.957,4,-0.179,0.015,0.028,5,-7.256,-33.938,4.669
162496.69558,3,0.274,0.091,9.765,4,-0.115,0.024,0.075,5,-7.256,-33.975,4.725
162496.71503,3,0.402,0.182,9.739,4,-0.056,0.031,0.114,5,-7.425,-34.069,4.706
162496.73447,3,0.468,0.153,9.788,4,-0.078,0.021,0.141,5,-7.425,-34.163,4.406
162496.75392,3,0.527,0.102,9.875,4,-0.091,0.018,0.110,5,-7.538,-34.294,3.994
162496.77337,3,0.545,0.089,9.893,4,-0.079,0.012,0.059,5,-7.538,-34.388,3.956
162496.79281,3,0.526,0.008,9.795,5,-7.838,-34.444,3.844
162496.81226,3,0.548,-0.004,9.684,4,-0.006,-0.013,0.021,5,-7.781,-34.519,3.806
162496.83170,3,0.606,0.029,9.604,4,0.008,-0.028,0.029,5,-7.613,-34.275,3.413
162496.85115,3,0.621,0.020,9.545,5,-7.575,-34.556,3.150
162496.87059,3,0.677,-0.024,9.562,4,-0.025,0.011,0.035,5,-7.669,-34.650,3.094
162496.89004,3,0.667,-0.010,9.689,4,-0.064,0.058,0.018,5,-7.613,-34.463,3.338
162496.90948,3,0.566,0.005,9.752,4,-0.088,0.083,-0.002,5,-7.575,-34.594,3.563
162496.92893,3,0.444,0.081,9.810,5,-7.519,-34.425,3.525
162496.94838,3,0.414,0.121,9.782,4,-0.086,0.064,-0.009,5,-7.538,-34.294,3.338
162496.96782,3,0.376,0.166,9.697,4,-0.032,-0.003,0.005,5,-7.781,-34.200,3.356
162496.98727,3,0.256,0.207,9.665,5,-7.781,-34.050,3.544
162497.00671,3,0.126,0.225,9.580,4,0.008,0.026,-0.013,5,-7.819,-33.900,3.713
162497.02616,3,-0.073,0.350,9.548,4,0.018,0.048,-0.041,5,-7.744,-33.900,3.469
162497.04560,3,-0.140,0.363,9.473,4,0.013,0.075,-0.051,5,-7.819,-33.863,3.244
162497.06505,3,-0.098,0.260,9.175,4,0.059,0.095,-0.029,5,-7.950,-33.563,3.169
162497.08449,3,-0.285,0.283,9.120,4,0.110,0.075,0.005,5,-8.044,-33.750,3.131
162497.10394,3,-0.439,0.468,9.536,4,0.058,0.081,0.041,5,-7.838,-33.825,3.394
162497.12339,3,-0.316,0.626,10.100,4,-0.066,0.048,0.102,5,-7.706,-33.863,3.450
162497.14283,3,-0.025,0.849,10.416,4,-0.155,-0.049,0.201,5,-7.838,-34.125,3.356
162497.16228,3,0.209,1.104,10.254,4,-0.113,-0.140,0.284,5,-7.950,-34.200,3.281
162497.18172,3,0.496,1.144,9.770,4,0.077,-0.157,0.270,5,-7.950,-34.163,3.488
162497.20117,3,0.686,1.525,9.958,4,0.007,0.017,0.007,5,-8.025,-34.181,3.563
162497.22061,3,0.190,2.260,10.195,5,-8.063,-34.219,3.675
162497.24006,3,-0.304,1.985,10.023,4,0.013,0.094,-0.237,5,-8.213,-34.219,3.788
162497.25950,3,-0.627,1.504,9.426,4,0.141,0.104,-0.279,5,-8.325,-34.219,3.694
162497.27895,3,-0.869,1.572,8.802,4,0.394,0.015,-0.073,5,-8.325,-34.219,3.694
162497.29840,3,-0.640,1.663,8.280,4,0.443,-0.069,0.110
162497.31784,3,-0.268,1.829,8.215,5,-8.213,-34.313,3.638
162497.33729,3,0.194,1.922,8.266,4,0.380,-0.125,0.212,5,-8.194,-34.294,3.938
162497.35673,3,0.356,1.878,8.385,5,-8.250,-34.238,4.163
162497.37618,3,0.443,1.778,8.637,4,0.139,-0.239,0.303,5,-7.988,-34.369,4.200
162497.39562,3,0.668,1.807,8.953,5,-7.950,-34.519,4.200
162497.41507,3,0.996,1.984,9.065,4,0.131,-0.537,0.389,5,-7.931,-34.631,4.575
162497.43451,3,1.228,2.088,8.973,4,0.182,-0.616,0.287,5,-7.875,-34.650,4.969
162497.45396,3,1.391,2.115,8.991,4,0.127,-0.581,0.162,5,-8.138,-34.669,5.250
162497.47340,3,1.137,2.455,9.665,5,-8.419,-34.331,5.831
162497.49285,3,1.149,3.069,10.248,4,-0.035,-0.520,0.033,5,-8.381,-34.219,5.850
162497.51230,3,2.169,2.659,9.576,4,-0.110,-0.303,-0.107,5,-8.569,-34.238,6.019
162497.53174,3,2.383,1.727,9.341,5,-8.869,-34.350,6.263
162497.55119,3,1.065,1.781,9.967,4,-0.205,0.616,-0.949,5,-8.888,-34.369,6.563
162497.57063,3,-0.227,1.894,11.107,4,-0.388,0.844,-0.924,5,-8.794,-34.275,6.319
162497.59008,3,-0.968,1.653,12.358,5,-8.663,-34.181,6.188
162497.60952,3,-1.415,2.365,12.860,4,-0.344,0.911,-0.522,5,-8.250,-34.275,6.150
162497.62897,3,-1.299,2.486,12.785,5,-7.913,-34.519,5.888
162497.64841,3,-0.358,1.444,11.879,4,-0.119,0.894,-0.430,5,-7.838,-34.631,5.775
162497.66786,3,-0.808,0.413,12.159,4,0.130,0.748,-0.945,5,-7.500,-34.744,5.513
162497.68731,3,-1.796,-0.408,13.232,4,-0.398,0.531,-1.246,5,-7.256,-34.856,5.456
162497.70675,3,-1.598,-2.210,13.894,5,-6.938,-34.819,5.475
162497.72620,3,-0.918,-3.266,12.995,4,-0.737,0.571,-0.850,5,-6.544,-35.025,5.438
162497.74564,3,-0.509,-2.550,12.296,4,-0.373,0.844,-0.239,5,-6.431,-35.231,5.306
162497.76509,3,0.083,-2.185,11.704,4,0.133,0.695,0.141,5,-6.169,-35.344,5.063
162497.78453,3,0.790,-2.798,11.362,4,0.565,0.100,0.529,5,-6.038,-35.456,4.988
162497.80398,3,1.067,-3.444,10.158,4,1.502,-1.045,0.644,5,-5.756,-35.531,5.138
162497.82342,3,0.990,-3.716,8.936,4,1.704,-1.251,0.582,5,-5.531,-35.438,5.363
162497.84287,3,0.816,-3.470,7.857,4,1.525,-1.149,0.504,5,-5.475,-35.175,5.756
162497.86232,3,0.735,-3.090,7.367,4,1.041,-0.831,0.371,5,-5.550,-35.119,5.888
162497.88176,3,0.774,-2.261,7.598,4,0.461,-0.489,0.173,5,-5.625,-34.800,6.544
162497.90121,3,1.015,-1.411,8.223,5,-5.513,-34.538,7.219
162497.92065,3,1.113,-0.885,8.560,4,-0.164,-0.030,-0.218,5,-5.738,-34.125,7.856
162497.94010,3,1.052,-0.759,8.503,4,-0.214,0.112,-0.235,5,-5.719,-33.769,8.794
162497.95954,3,0.664,-0.898,8.431,4,-0.202,0.167,-0.146,5,-5.906,-33.694,9.356
162497.97899,3,0.301,-0.878,8.476,4,-0.164,0.138,0.014,5,-5.719,-33.694,9.938
162497.99843,3,0.238,-0.851,8.727
162498.01788,3,0.363,-0.984,8.845,4,-0.080,0.053,0.171,5,-5.681,-33.638,10.181
162498.03733,3,0.309,-1.073,8.528,4,0.014,-0.049,0.240,5,-5.625,-33.638,10.331
162498.05677,3,0.135,-0.980,8.455,4,0.102,-0.066,0.262,5,-5.681,-33.844,10.406
162498.07622,3,0.184,-0.362,8.778,4,0.103,-0.016,0.347,5,-6.000,-34.106,10.406
162498.09566,3,0.522,0.197,9.253,4,0.011,-0.131,0.443,5,-6.075,-34.238,10.613
162498.11511,3,1.043,0.408,9.545,4,-0.106,-0.350,0.451,5,-6.169,-34.313,10.425
162498.13455,3,1.137,0.370,9.970,4,-0.270,-0.231,0.057,5,-6.319,-34.219,10.350
162498.15400,3,0.742,0.340,9.948,5,-6.619,-34.013,10.088
162498.17344,3,0.479,0.302,9.741,4,-0.026,0.030,-0.068,5,-6.675,-34.050,9.956
162498.19289,3,0.549,-0.005,9.365,5,-6.863,-34.163,10.163
162498.21234,3,0.657,-0.273,9.135,4,0.061,0.101,-0.084,5,-7.069,-33.881,9.975
162498.23178,3,0.712,-0.340,8.899,4,0.090,0.205,-0.101,5,-6.938,-33.769,10.181
162498.25123,3,0.881,-0.432,8.780,4,-0.147,0.235,-0.031,5,-7.069,-33.844,9.863
162498.27067,3,0.839,-0.558,9.304,4,-0.478,0.165,-0.040,5,-6.806,-33.900,9.713
162498.29012,3,0.551,-0.356,10.528,5,-6.431,-33.956,9.563
162498.30956,3,0.358,-0.153,10.994,4,-0.605,0.137,-0.257,5,-6.469,-34.219,9.431
162498.32901,3,0.417,0.144,10.369,5,-6.581,-34.219,9.431
162498.34845,3,0.399,0.599,9.720,4,-0.153,0.168,-0.134,5,-6.431,-34.238,9.113
162498.36790,3,0.220,1.183,9.710,4,-0.091,-0.010,0.013,5,-6.244,-34.406,8.925
162498.38735,3,0.006,1.295,10.305,4,-0.089,-0.363,0.123,5,-6.281,-34.613,8.419
162498.40679,3,0.068,0.957,10.378,5,-6.131,-34.519,8.363
162498.42624,3,0.297,0.674,9.943,4,-0.013,-0.581,0.199,5,-6.263,-34.725,8.138
162498.44568,3,0.380,0.717,9.633,4,0.154,-0.102,0.146,5,-6.563,-34.838,8.119
162498.46513,3,0.360,0.761,9.478,4,0.140,0.067,0.069,5,-6.731,-34.800,8.025
162498.48457,3,0.461,0.731,9.484,4,0.084,-0.006,0.030,5,-6.413,-34.894,7.950
162498.50402,3,0.474,0.613,9.710,4,0.047,-0.103,0.038,5,-6.356,-35.063,7.763
162498.52346,3,0.518,0.389,9.682,4,0.083,-0.110,0.077,5,-6.469,-34.950,7.650
162498.54291,3,0.563,0.270,9.450,4,0.109,-0.021,0.083,5,-6.356,-34.875,7.706
162498.56236,3,0.527,0.169,9.280,4,0.059,0.035,0.063,5,-6.413,-34.875,7.669
162498.58180,3,0.535,0.242,9.398,4,-0.033,0.032,0.057,5,-6.450,-34.538,7.575
162498.60125,3,0.571,0.505,9.752,5,-6.319,-34.331,7.425
162498.62069,3,0.658,0.699,10.083,4,-0.086,-0.012,0.058,5,-6.150,-34.388,7.219
162498.64014,3,0.855,0.899,10.017,4,-0.023,-0.094,0.096,5,-6.169,-34.444,7.013
162498.65958,3,0.978,0.881,9.722,5,-6.263,-34.144,7.369
162498.67903,3,0.754,0.764,9.715,4,0.029,0.059,0.055,5,-6.431,-34.275,7.406
162498.69847,3,0.644,0.783,9.456,4,0.032,0.037,0.027,5,-6.450,-33.975,7.481
162498.71792,3,0.468,0.541,9.365,4,0.005,-0.024,-0.010
162498.73736,3,0.339,0.435,9.423,5,-6.450,-34.106,7.388
162498.75681,3,0.448,0.451,9.426,4,-0.071,0.021,0.027,5,-6.619,-34.181,7.538
162498.77626,3,0.499,0.481,9.548,4,-0.119,0.038,0.045,5,-6.713,-34.256,7.481
162498.79570,3,0.358,0.280,9.867,5,-6.581,-34.106,7.669
162498.81515,3,0.360,0.384,9.783,4,-0.118,0.026,0.027,5,-6.863,-34.031,7.819
162498.83459,3,0.604,0.511,9.961,4,-0.056,-0.081,0.006,5,-6.900,-34.125,7.519
162498.85404,3,0.803,0.584,10.095,4,-0.057,-0.092,0.033,5,-6.731,-33.863,7.631
162498.87348,3,0.675,0.676,10.015,4,-0.087,-0.001,0.072,5,-6.656,-34.069,7.519
162498.89293,3,1.246,0.947,9.821,4,0.035,-0.030,0.065,5,-6.694,-34.031,7.706
162498.91237,3,1.209,0.869,9.945,5,-6.713,-34.031,7.856
162498.93182,3,0.976,0.762,9.598,4,0.032,-0.031,-0.014,5,-6.581,-34.181,7.931
